acc_x, acc_y, angular_z, stamp, 
0.03211444616317749, -0.007229447364807129, -5.928236548362612e-05, 1696622167496456573, 
0.02313363552093506, 0.0071457624435424805, -9.836511069049113e-05, 1696622167503841630, 
0.01958012580871582, -0.025157511234283447, -7.307503165159327e-05, 1696622167513833514, 
0.030270040035247803, -0.023283183574676514, -7.031865623290973e-05, 1696622167524217065, 
0.021229028701782227, 0.009092569351196289, -7.546996591887495e-05, 1696622167533842510, 
-0.014709711074829102, 0.00015038251876831055, -7.030876168524938e-05, 1696622167544280507, 
-0.02021855115890503, 0.00739288330078125, -7.67834108386921e-05, 1696622167553789819, 
-0.016586661338806152, -0.017704010009765625, -7.367245754230811e-05, 1696622167563751243, 
-0.021943867206573486, -0.006862938404083252, -6.155020817985029e-05, 1696622167575674560, 
-0.02721273899078369, 0.009335100650787354, -9.124418152484531e-05, 1696622167583717623, 
-0.025338172912597656, 0.02013009786605835, -7.312138105447352e-05, 1696622167593754124, 
0.005295395851135254, 0.0003808140754699707, -7.324626975722401e-05, 1696622167603722654, 
0.0053670406341552734, 0.007564365863800049, -7.342163188136025e-05, 1696622167613718114, 
0.01623636484146118, 0.021887242794036865, -7.006970861511119e-05, 1696622167624191725, 
0.055705726146698, 0.011063933372497559, -7.75231267337147e-05, 1696622167633658355, 
0.04301953315734863, -0.014101624488830566, -7.260675044534381e-05, 1696622167643663376, 
0.012366712093353271, -0.030241549015045166, -6.055229719558175e-05, 1696622167655783192, 
0.015842914581298828, 0.0038970112800598145, -9.396700698076043e-05, 1696622167663593196, 
0.012126028537750244, 0.005696475505828857, -7.319949345198639e-05, 1696622167673618983, 
-0.03825497627258301, 0.007492363452911377, -7.34801529493714e-05, 1696622167683606477, 
-0.022075772285461426, 0.0002911090850830078, -7.315096021665834e-05, 1696622167693638915, 
-0.027498304843902588, -0.0014963150024414062, -7.223265332801347e-05, 1696622167703798898, 
-0.027393460273742676, -0.0158575177192688, -7.511564421356642e-05, 1696622167713568933, 
-0.03631335496902466, 0.005716562271118164, -7.35969461616397e-05, 1696622167723540576, 
-0.01820814609527588, 0.014679431915283203, -5.820778502421969e-05, 1696622167736148554, 
0.0034267306327819824, 0.021826863288879395, -9.822942051170963e-05, 1696622167743543813, 
0.02327132225036621, 0.012781679630279541, -7.339365725457152e-05, 1696622167753492319, 
0.03405869007110596, -0.00701981782913208, -7.282842540993622e-05, 1696622167763518036, 
0.046574950218200684, -0.028572499752044678, -7.315956572009704e-05, 1696622167773447453, 
0.01772969961166382, -0.01776188611984253, -7.230336537091374e-05, 1696622167783545975, 
0.008731365203857422, 0.012760519981384277, -7.362570492493303e-05, 1696622167793513723, 
-0.011162996292114258, 0.0002116560935974121, -7.422153244618242e-05, 1696622167803401453, 
-0.03090006113052368, -0.03206914663314819, -7.298802720843463e-05, 1696622167823511125, 
-0.05418741703033447, -0.006856799125671387, -8.135803752708141e-05, 1696622167832531531, 
-0.03064405918121338, 0.01650714874267578, -6.768794442137226e-05, 1696622167843373678, 
0.00716930627822876, 0.01651477813720703, -7.283189348002858e-05, 1696622167853347770, 
-0.005278825759887695, 0.00034946203231811523, -6.956321554841882e-05, 1696622167863844084, 
-0.008768796920776367, 0.020082712173461914, -7.616029043889787e-05, 1696622167873382283, 
0.03443348407745361, 0.01822453737258911, -7.326475819548712e-05, 1696622167883348292, 
0.032559990882873535, -0.010525286197662354, -6.30164820462615e-05, 1696622167894875942, 
0.045170724391937256, 0.0037822723388671875, -8.666220835236625e-05, 1696622167903258279, 
0.03245282173156738, -0.003420591354370117, -7.285038592141101e-05, 1696622167913280973, 
0.02876126766204834, -0.04111415147781372, -7.349706692765032e-05, 1696622167923215480, 
-0.001963317394256592, 0.0002435445785522461, -7.128737305803631e-05, 1696622167933457926, 
-0.03434568643569946, 0.003855884075164795, -7.002973459637397e-05, 1696622167943937509, 
-0.03980356454849243, 0.0038886070251464844, -7.788291114923638e-05, 1696622167953360403, 
-0.04145437479019165, -0.0015041232109069824, -7.012967188450011e-05, 1696622167963771933, 
-0.010871469974517822, 0.021833837032318115, -6.173288003948951e-05, 1696622167975599620, 
5.7220458984375e-06, 0.014603793621063232, -8.983678481052019e-05, 1696622167983727217, 
-0.012501001358032227, 0.0055841803550720215, -7.314287146927039e-05, 1696622167993709832, 
0.016293764114379883, 0.0019477605819702148, -7.340693079691251e-05, 1696622168003656536, 
0.05568212270736694, 0.007308244705200195, -7.286874841613941e-05, 1696622168013676702, 
0.0018594861030578613, -0.019674479961395264, -7.328682748114466e-05, 1696622168023639706, 
0.026871562004089355, -0.01426607370376587, -7.308284974087921e-05, 1696622168033630518, 
0.04835176467895508, 0.005470931529998779, -7.321276179108383e-05, 1696622168043552718, 
0.03375488519668579, -0.019636094570159912, -6.10401390865889e-05, 1696622168055514633, 
-0.0077155232429504395, -0.003440678119659424, -8.974189821350662e-05, 1696622168063650821, 
-0.03654766082763672, 0.019907474517822266, -7.356881393159949e-05, 1696622168073626274, 
-0.04731255769729614, -0.001651465892791748, -7.340874230751655e-05, 1696622168083623479, 
-0.040120840072631836, -0.010605871677398682, -7.35910397949544e-05, 1696622168093595920, 
0.02099686861038208, 0.01990354061126709, -7.355092489424957e-05, 1696622168103573800, 
0.020985960960388184, 0.028825581073760986, -7.293977252497415e-05, 1696622168113584209, 
0.011935293674468994, 0.017979025840759277, -7.789180235847675e-05, 1696622168122958198, 
-0.0024167299270629883, 0.010694444179534912, -5.5450139173124115e-05, 1696622168136126007, 
0.01185905933380127, 0.01598888635635376, -0.00010959184885376326, 1696622168142788518, 
0.026198923587799072, 0.005093991756439209, -7.221797029808034e-05, 1696622168152847394, 
0.04754018783569336, -0.009341895580291748, -7.298637852023979e-05, 1696622168162851410, 
0.006111562252044678, -0.011205196380615234, -7.145733862916136e-05, 1696622168172965226, 
-0.019175171852111816, 0.004905104637145996, -6.880644510123319e-05, 1696622168183576980, 
-0.017366111278533936, -0.009529471397399902, -7.956341818404418e-05, 1696622168192754025, 
-0.04435539245605469, 0.015563130378723145, -7.297508735608993e-05, 1696622168202759592, 
-0.053243041038513184, 0.00292283296585083, -5.756727097746122e-05, 1696622168215378425, 
-0.03510558605194092, -0.013294517993927002, -9.953913976438481e-05, 1696622168222676375, 
-0.020635902881622314, 0.010014355182647705, -7.201381916856939e-05, 1696622168232763766, 
0.01358938217163086, 0.0027820467948913574, -7.248645452416495e-05, 1696622168242733991, 
-0.004260718822479248, 0.0063173770904541016, -7.277882036834545e-05, 1696622168252664163, 
0.0047800540924072266, 0.004470884799957275, -6.198390343059239e-05, 1696622168264263639, 
0.021060824394226074, 0.0061882734298706055, -8.566240357342782e-05, 1696622168272656828, 
0.03184264898300171, -0.015401124954223633, -6.974275683984452e-05, 1696622168282965867, 
0.05334818363189697, -0.022592365741729736, -6.51997242068228e-05, 1696622168294050364, 
0.015522181987762451, -0.01717466115951538, -8.407395338411221e-05, 1696622168302646442, 
0.02255004644393921, -0.009942591190338135, -7.083101964821895e-05, 1696622168312849688, 
-0.011639058589935303, -0.0027260780334472656, -7.457555333210724e-05, 1696622168322540616, 
-0.0242539644241333, -0.013448119163513184, -7.214489928756766e-05, 1696622168332609680, 
-0.024280965328216553, 0.013529658317565918, -6.954420709211738e-05, 1696622168343055290, 
-0.02422577142715454, -0.006195485591888428, -7.656383996488716e-05, 1696622168352543211, 
-0.01343536376953125, 0.0010311007499694824, -7.130537220982983e-05, 1696622168362730825, 
-0.0008081197738647461, 0.02616649866104126, -6.017956348025024e-05, 1696622168374863796, 
-0.0007475018501281738, 0.0028018951416015625, -9.559707276062955e-05, 1696622168382423717, 
0.022582590579986572, -0.0025864243507385254, -7.159685184648567e-05, 1696622168392465793, 
0.033319950103759766, -0.00438302755355835, -7.365004505289863e-05, 1696622168402379662, 
0.03328055143356323, 0.0027851462364196777, -7.240596301326335e-05, 1696622168412412423, 
0.05460166931152344, -0.018726468086242676, -6.489991251253937e-05, 1696622168423605530, 
0.01140141487121582, -0.01152104139328003, -8.261543622648291e-05, 1696622168432398459, 
-0.01218336820602417, -0.01861673593521118, -7.809964889274936e-05, 1696622168441699804, 
-0.01762831211090088, -0.011367261409759521, -6.038774229018899e-05, 1696622168453790951, 
-0.03925037384033203, -0.004097878932952881, -8.516710203690951e-05, 1696622168462364180, 
0.0092582106590271, 0.012104809284210205, -7.293227966816676e-05, 1696622168472375619, 
-0.04106932878494263, 0.037257611751556396, -7.356003646068092e-05, 1696622168482301621, 
-0.04631167650222778, -0.007654070854187012, -7.323552332614259e-05, 1696622168492271606, 
-0.019282758235931396, -0.00045877695083618164, -6.454003523132434e-05, 1696622168503527127, 
0.0023813843727111816, 0.022858142852783203, -8.213292677746986e-05, 1696622168512417069, 
-0.001153409481048584, 0.015632688999176025, -7.333180861041127e-05, 1696622168522373961, 
0.03487509489059448, -0.004201710224151611, -5.874434936418764e-05, 1696622168534803359, 
0.03487509489059448, -0.004201710224151611, -9.77545591148653e-05, 1696622168542272647, 
0.03483062982559204, -0.014983713626861572, -7.293123387224795e-05, 1696622168552284228, 
0.03473716974258423, -0.004205763339996338, -7.332851682111439e-05, 1696622168562190765, 
0.0005207657814025879, -0.013164520263671875, -7.085140891476e-05, 1696622168572496235, 
-0.00313568115234375, -0.025682806968688965, -6.357141707005866e-05, 1696622168583981853, 
-0.0247194766998291, -0.005864918231964111, -8.829257739845064e-05, 1696622168592251597, 
-0.02284306287765503, 0.0013551712036132812, -7.277755123762241e-05, 1696622168602284320, 
-0.04082268476486206, 0.0068048834800720215, -7.322654203509249e-05, 1696622168612204652, 
-0.011946260929107666, -0.0003567934036254883, -7.262815950612621e-05, 1696622168622309302, 
-0.006474673748016357, 0.003265380859375, -7.424366522392418e-05, 1696622168632143904, 
0.009715080261230469, 0.012264847755432129, -7.403925290557188e-05, 1696622168642005658, 
0.01338285207748413, 0.01403963565826416, -7.209163370731984e-05, 1696622168652133836, 
0.022386550903320312, -0.007518649101257324, -6.383579597659803e-05, 1696622168663571884, 
0.06533271074295044, -0.0039042234420776367, -8.652774743476132e-05, 1696622168672010298, 
0.03469961881637573, -0.005696415901184082, -7.207918509805342e-05, 1696622168682140226, 
0.016576409339904785, -0.012846648693084717, -7.443691414154187e-05, 1696622168691999343, 
-0.0015064477920532227, -0.01638948917388916, -7.416338836129821e-05, 1696622168701945052, 
0.010956943035125732, -0.0019771456718444824, -7.043830434649093e-05, 1696622168712310958, 
-0.012550115585327148, -0.007295429706573486, -7.63829639717055e-05, 1696622168721918886, 
-0.03767597675323486, 0.003513336181640625, -7.41273573532537e-05, 1696622168731869427, 
-0.03951948881149292, -0.003604888916015625, -6.344238519718744e-05, 1696622168743495839, 
-0.02864658832550049, 0.007197737693786621, -8.812882219615212e-05, 1696622168751865488, 
-0.008899688720703125, 0.007239341735839844, -7.400278484954802e-05, 1696622168761832780, 
0.010939300060272217, -0.00531381368637085, -7.33434635735531e-05, 1696622168771889673, 
0.019920825958251953, 0.00010371208190917969, -7.377645092490913e-05, 1696622168781887543, 
-0.01233363151550293, -0.008850514888763428, -7.400076542359008e-05, 1696622168791855107, 
0.027084171772003174, -0.006988406181335449, -7.428937404220456e-05, 1696622168801783947, 
0.05035257339477539, -0.005144238471984863, -7.399287782635855e-05, 1696622168811752572, 
0.030487000942230225, -0.021236002445220947, -5.929788147535581e-05, 1696622168824128762, 
0.019595742225646973, -0.015760362148284912, -9.718426422838045e-05, 1696622168831756872, 
0.0032469630241394043, -0.006671011447906494, -7.480286040299824e-05, 1696622168841717152, 
-0.016610562801361084, 0.005982339382171631, -7.419753776019923e-05, 1696622168851758689, 
-0.029224514961242676, 0.01680666208267212, -7.511429305224444e-05, 1696622168861677671, 
-0.02209305763244629, -0.0010966062545776367, -7.389490372477254e-05, 1696622168871760332, 
-0.0597149133682251, 0.025845706462860107, -7.549849959319448e-05, 1696622168881628837, 
-0.007561445236206055, 0.013262629508972168, -7.453664810510483e-05, 1696622168891624690, 
0.024814069271087646, -0.01726013422012329, -6.042118464683664e-05, 1696622168903955753, 
0.03199702501296997, 0.020436465740203857, -9.689351994641689e-05, 1696622168911606750, 
0.0014584064483642578, 0.02038705348968506, -7.461693760189188e-05, 1696622168921591848, 
0.05515587329864502, 0.020335853099822998, -7.403956744710938e-05, 1696622168931604497, 
0.058636486530303955, 0.0076677799224853516, -7.494064649528361e-05, 1696622168941546464, 
0.009934723377227783, -0.030071675777435303, -7.170879076721852e-05, 1696622168951936508, 
0.0381159782409668, -0.0020325779914855957, 0.0, 1696622168961517592, 
0.019107818603515625, -0.008882701396942139, 0.0005723513621575096, 1696622168971567069, 
-0.004739642143249512, -0.009177148342132568, 0.001834666487927526, 1696622168983636359, 
0.004294753074645996, 0.0015398859977722168, 0.006232546139992853, 1696622168991449699, 
0.08111989498138428, 0.00899726152420044, 0.012833723248902537, 1696622169001444435, 
0.4533389210700989, 0.04912787675857544, 0.04167556321248395, 1696622169011398865, 
0.4784098267555237, 0.26352035999298096, 0.1213848600784762, 1696622169020676529, 
-0.9511003494262695, 0.633825957775116, 0.2256301565714895, 1696622169031316590, 
-1.6677625179290771, 0.8005008101463318, 0.40018025037153165, 1696622169041333184, 
-0.37264102697372437, 0.34684956073760986, 0.5442797650635237, 1696622169051378466, 
0.04754906892776489, 0.30297577381134033, 0.5330929305272111, 1696622169063576036, 
-0.5003163814544678, 0.5129715204238892, 0.9499711150662761, 1696622169071293434, 
-0.7479093074798584, 0.955929696559906, 0.8175701892683315, 1696622169081266089, 
-0.6053175926208496, 1.0173437595367432, 0.907180385967409, 1696622169091265789, 
-0.42927098274230957, 0.7872693538665771, 1.0084626610210026, 1696622169101253482, 
-0.29789596796035767, 0.4736143946647644, 1.0703358776322918, 1696622169111531452, 
0.02887105941772461, 0.32240402698516846, 1.218523258615257, 1696622169121240564, 
-0.1767061948776245, 0.17000263929367065, 1.2610987528451514, 1696622169131233078, 
-0.27474087476730347, -0.0380781888961792, 1.0873635871721168, 1696622169143518930, 
-0.154052734375, -0.07916373014450073, 1.8448748330446059, 1696622169151180219, 
-0.13920444250106812, -0.03399926424026489, 1.479820030805985, 1696622169161191742, 
-0.3683274984359741, 0.21524429321289062, 1.5443385330581747, 1696622169171155361, 
-0.5980773568153381, 0.18403953313827515, 1.6089241058433585, 1696622169181112587, 
-0.5740013122558594, 0.15616685152053833, 1.5812403917481201, 1696622169191729604, 
-0.4956400394439697, 0.26324212551116943, 1.8823118182252305, 1696622169201098487, 
-0.2688237428665161, 0.7402541041374207, 1.8424608090515224, 1696622169211115296, 
-0.2031880021095276, 0.5073070526123047, 1.4809531754199423, 1696622169224086728, 
-0.5064395666122437, 0.3552059531211853, 2.811799137195676, 1696622169231111937, 
-1.1413297653198242, -0.007109642028808594, 1.995811199525706, 1696622169241233882, 
-0.2986977696418762, -0.19535571336746216, 2.1002070948102878, 1696622169251090390, 
0.5306237936019897, -0.11050593852996826, 2.1336862618887036, 1696622169260948054, 
0.5489256978034973, -0.05387711524963379, 1.917671024086118, 1696622169271924741, 
-0.025233209133148193, -0.055372655391693115, 2.3171975680657444, 1696622169280954963, 
-0.7978030443191528, -0.491710901260376, 2.0860116354164786, 1696622169290998545, 
-0.5775984525680542, -0.6536064743995667, 1.6707995183746178, 1696622169303598789, 
-0.32669544219970703, 0.051222383975982666, 2.8729831020948224, 1696622169310918927, 
0.14102458953857422, 0.22381144762039185, 2.079951560152262, 1696622169320913382, 
0.5788676738739014, -0.13388240337371826, 2.0450121026429784, 1696622169330946943, 
0.03215140104293823, -0.45764583349227905, 2.048575002943889, 1696622169340850106, 
-0.24052298069000244, -0.20829492807388306, 1.7973572855670579, 1696622169351994589, 
-0.22662848234176636, 0.01721775531768799, 2.2153765219263097, 1696622169360859891, 
-0.0640491247177124, -0.31303536891937256, 2.086314018689897, 1696622169370051388, 
0.026749789714813232, -0.6783460974693298, 1.354822022014259, 1696622169383916400, 
0.25430232286453247, -0.6201902627944946, 2.6804643693354673, 1696622169390810847, 
-0.03047657012939453, -0.05069231986999512, 1.8386833945759513, 1696622169400834269, 
-0.5970777273178101, -0.0553051233291626, 1.8328439583444884, 1696622169410908839, 
-0.24384689331054688, -0.026422500610351562, 1.8719329031616694, 1696622169420823957, 
-0.5045285224914551, -0.17069095373153687, 1.721481254897847, 1696622169431692949, 
0.09826469421386719, 0.24446284770965576, 2.0694100642439346, 1696622169440751706, 
-0.17634248733520508, 0.15016812086105347, 1.8389036401465928, 1696622169450914402, 
-0.40209507942199707, -0.28503477573394775, 1.4793455495940013, 1696622169463591375, 
0.04304766654968262, -0.26949799060821533, 2.5499317650547084, 1696622169471008999, 
0.13958555459976196, 0.1617422103881836, 1.9369218467279177, 1696622169480750655, 
0.24177032709121704, 0.1124340295791626, 1.870021251249109, 1696622169490801628, 
-0.05447298288345337, -0.4465794563293457, 1.8732119070064612, 1696622169500763932, 
-0.44414210319519043, -0.504940927028656, 1.7225794812474695, 1696622169511603487, 
-0.10564130544662476, -0.16899412870407104, 2.0690843423668928, 1696622169520677331, 
0.2998363971710205, 0.11371016502380371, 1.9054083538915083, 1696622169530574135, 
0.33366721868515015, 0.0685015320777893, 1.5249543251110562, 1696622169542958861, 
-0.1855703592300415, -0.2941068410873413, 2.4152801784925546, 1696622169550775418, 
-0.5798755288124084, -0.26050060987472534, 1.9466483561172767, 1696622169560508343, 
-0.34989529848098755, 0.09766256809234619, 1.8931667337464555, 1696622169570517466, 
0.33989930152893066, 0.29648739099502563, 1.9108586139274497, 1696622169580467356, 
0.3293043375015259, 0.03799706697463989, 1.6677257651398165, 1696622169591882907, 
-0.1961740255355835, -0.2697299122810364, 2.5231738872536242, 1696622169599434633, 
-0.576038658618927, -0.40106475353240967, 1.7244492182072757, 1696622169610500594, 
-0.49689823389053345, -0.11037814617156982, 1.536325695097664, 1696622169622975457, 
-0.07363736629486084, 0.001852273941040039, 2.6013197580426692, 1696622169630393881, 
0.36409246921539307, -0.05672365427017212, 1.9484828864661592, 1696622169640378022, 
-0.13306939601898193, -0.19798201322555542, 1.9156862397553662, 1696622169650562134, 
-0.20078617334365845, -0.07243776321411133, 1.978100087306735, 1696622169660326204, 
-0.4106874465942383, 0.14902979135513306, 1.7816487594043016, 1696622169671105306, 
-0.16973215341567993, -0.017712175846099854, 2.055936133015352, 1696622169680375708, 
0.05579376220703125, -0.2137492299079895, 1.8966228494794615, 1696622169690388350, 
-0.08955234289169312, -0.3942720890045166, 1.9137607388692417, 1696622169700312164, 
0.330111026763916, -0.16253763437271118, 1.9000906988511415, 1696622169710278674, 
-0.04887723922729492, 0.013442635536193848, 1.895167299307789, 1696622169720254335, 
-0.4017176032066345, -0.07718771696090698, 1.9082306239596025, 1696622169730207380, 
-0.5812934637069702, -0.10669898986816406, 1.9105243757945582, 1696622169740249098, 
-0.34332025051116943, -0.2205384373664856, 1.6052018913540476, 1696622169752236143, 
0.3280121088027954, -0.11133241653442383, 2.422990807191107, 1696622169760210131, 
0.10304075479507446, 0.18894392251968384, 1.9200291114650425, 1696622169770241623, 
-0.18566691875457764, 0.11178714036941528, 1.533636644485778, 1696622169782734865, 
-0.3412342071533203, -0.35544782876968384, 2.5827565735419835, 1696622169790149984, 
-0.11051023006439209, -0.2910193204879761, 1.9342873424030627, 1696622169800096397, 
0.1563335657119751, 0.23236876726150513, 1.936705461291684, 1696622169810080646, 
0.20540714263916016, 0.29896992444992065, 1.9301380465846552, 1696622169820119980, 
-0.18786543607711792, -0.25901246070861816, 1.5970094736603362, 1696622169832210717, 
-0.8130196928977966, -0.6143636703491211, 2.442425634775157, 1696622169840108534, 
-0.6999316811561584, -0.17941677570343018, 1.9183690373148723, 1696622169850215119, 
0.29899150133132935, -0.02365332841873169, 2.061242489619283, 1696622169869047539, 
0.3243967294692993, -0.5718857049942017, 1.9268099843064406, 1696622169879050258, 
-0.07611733675003052, -0.5828297138214111, 1.7544380386786158, 1696622169889959219, 
-0.297182559967041, 0.15288323163986206, 2.0874225002703546, 1696622169899051716, 
-0.44620299339294434, 0.2735587954521179, 1.5001765757751098, 1696622169911592896, 
-0.2670444846153259, -0.473352313041687, 2.2384521801774917, 1696622169919957295, 
0.21910834312438965, -0.696974515914917, 1.880472320962733, 1696622169929954171, 
0.32115495204925537, 0.11034435033798218, 1.879057424192587, 1696622169939993356, 
0.0391465425491333, 0.6640692949295044, 1.8806928556597038, 1696622169949966534, 
-0.48895156383514404, 0.13848775625228882, 1.8716013327233243, 1696622169959920542, 
-0.8355966806411743, -0.772407591342926, 1.8689083160100433, 1696622169969932402, 
-0.3456050157546997, -0.38954246044158936, 2.074566837739761, 1696622169979080921, 
0.09126275777816772, 0.5117178559303284, 1.8520269642745122, 1696622169999803496, 
-0.28120845556259155, -0.1878812313079834, 1.9008917694815866, 1696622170009850396, 
-0.87168949842453, -1.0339109897613525, 1.9025053272098869, 1696622170019899289, 
-0.24642181396484375, -0.37682467699050903, 1.9385676685443043, 1696622170029833075, 
0.030964136123657227, 0.6323459148406982, 1.9236835011953601, 1696622170039903318, 
0.0022336840629577637, 0.1338459849357605, 1.9013946718289225, 1696622170050111316, 
0.35824745893478394, -0.617461085319519, 2.0277671058096676, 1696622170059707773, 
-0.296564519405365, -0.549397349357605, 1.533394066277529, 1696622170072407260, 
-0.06210416555404663, 0.5075693130493164, 2.6650877673861455, 1696622170079659937, 
0.14055919647216797, 0.7333760857582092, 1.8786524884578837, 1696622170089825433, 
-0.05075937509536743, -0.35468608140945435, 1.909906813099449, 1696622170099727215, 
-0.04105037450790405, -0.9548336267471313, 1.910948595776358, 1696622170109667439, 
0.10920751094818115, -0.1550081968307495, 1.8401168755795723, 1696622170120011410, 
0.116294264793396, 0.6016082763671875, 1.929477979211031, 1696622170129809629, 
-0.46377670764923096, -0.05398523807525635, 1.922333005499216, 1696622170139567288, 
-0.8928965926170349, -1.0486620664596558, 1.4582072296449393, 1696622170152500566, 
-0.693618893623352, -0.641716718673706, 2.7109711766985494, 1696622170159526969, 
0.13136982917785645, 0.7810643911361694, 1.927745348114562, 1696622170169543935, 
0.4324878454208374, 0.811459481716156, 1.9271155879814112, 1696622170179560720, 
-0.14541101455688477, -0.24564743041992188, 1.9189656246308293, 1696622170189548475, 
-0.5789747834205627, -1.030285120010376, 1.8985396122628375, 1696622170199665807, 
-0.5265169143676758, -0.33736103773117065, 1.9133523073892102, 1696622170209797056, 
-0.1037411093711853, 0.8961250185966492, 2.2482375744065717, 1696622170218474926, 
-0.10819190740585327, 0.4706260561943054, 1.4733996549281607, 1696622170231698314, 
0.1357349157333374, -0.7679133415222168, 2.5223972353191697, 1696622170239375211, 
-0.17197906970977783, -0.7020615935325623, 1.8560922720412825, 1696622170249792348, 
-0.2350737452507019, 0.41658592224121094, 1.9965722098200214, 1696622170259432308, 
0.03216582536697388, 0.48650431632995605, 1.9212847791357202, 1696622170269395426, 
0.05016821622848511, -0.6089633703231812, 1.7951320405974704, 1696622170279990412, 
0.15821939706802368, -0.9610903263092041, 2.0131429945801056, 1696622170289502848, 
0.019779086112976074, -0.07401704788208008, 1.9457663239693328, 1696622170299337081, 
-0.7967312335968018, -0.05917733907699585, 1.8887013344702712, 1696622170319317840, 
-0.6412910223007202, -0.8326330780982971, 1.9132002654374605, 1696622170329239410, 
-0.28545576333999634, -0.620509147644043, 1.910109315679996, 1696622170339345080, 
0.462990939617157, 0.5533512234687805, 1.9591032725482478, 1696622170349258577, 
0.23178941011428833, 0.8299375176429749, 1.8680517329837705, 1696622170359593660, 
-0.634394645690918, -0.2450416088104248, 1.9512251958852942, 1696622170369346930, 
-0.7038607597351074, -0.8578211069107056, 1.9083864946359792, 1696622170379335081, 
-0.5022979974746704, -0.12402385473251343, 1.5107399462631506, 1696622170391996207, 
0.12917035818099976, 0.49288827180862427, 2.658752013856598, 1696622170399152493, 
0.48938727378845215, -0.1062694787979126, 1.8668903178685126, 1696622170409216520, 
0.27387648820877075, -0.7864573001861572, 1.861977193222969, 1696622170419180097, 
-0.26738446950912476, -0.6277158260345459, 1.857596330999074, 1696622170429074718, 
-0.07818257808685303, 0.13639283180236816, 1.644039252742564, 1696622170440073784, 
0.04348301887512207, 0.083163321018219, 1.9476353076210673, 1696622170449071884, 
0.29014265537261963, -0.8363167643547058, 1.6401526637334287, 1696622170459113312, 
0.8559093475341797, -1.1638511419296265, 1.2163133098807313, 1696622170471702183, 
0.7543862462043762, -0.5419192314147949, 1.9323005833547615, 1696622170479006418, 
0.18101537227630615, 0.09375530481338501, 1.4622706533587593, 1696622170488055384, 
-0.24657869338989258, -0.23660361766815186, 1.1611757271011767, 1696622170499008896, 
-0.3245231509208679, -0.6968396306037903, 1.2558973188095515, 1696622170508966212, 
0.000956118106842041, -0.3217277526855469, 1.1414385362041448, 1696622170519935605, 
0.535845935344696, 0.4952940344810486, 1.438535136265854, 1696622170528916081, 
0.094501793384552, 0.8456570506095886, 1.3907917192579065, 1696622170538927192, 
-0.8414086103439331, 0.8958175182342529, 1.2070790546363375, 1696622170551687717, 
-0.802785336971283, 0.6448655128479004, 2.369592839145458, 1696622170558897930, 
-0.5081655383110046, 0.5828685164451599, 1.821869293844264, 1696622170569063214, 
-0.03430986404418945, 0.5314080715179443, 1.9726569954576134, 1696622170578880989, 
0.14730024337768555, 0.33761417865753174, 1.9902302230671793, 1696622170588846737, 
-0.07376265525817871, 0.0784497857093811, 1.8744854759609082, 1696622170599615801, 
-0.22295302152633667, 0.08413553237915039, 2.2210043884005253, 1696622170608818403, 
-0.24461501836776733, -0.16984331607818604, 2.0581781717789576, 1696622170618798885, 
-0.038777709007263184, -0.19823342561721802, 1.5091785530179667, 1696622170632405168, 
-0.20099365711212158, -0.11824190616607666, 3.1329898366499993, 1696622170638958919, 
-0.025472044944763184, -0.1883326768875122, 2.2481403691733868, 1696622170648017913, 
-0.42599374055862427, -0.6008036136627197, 1.8564325581561385, 1696622170658912391, 
-0.42175257205963135, -0.4891929030418396, 1.9998696529562687, 1696622170668984950, 
-0.21730780601501465, 0.3166717290878296, 1.8749954179285218, 1696622170679661822, 
-0.1516839861869812, 0.142594575881958, 2.1519242510945604, 1696622170688911737, 
0.19079643487930298, -0.18669182062149048, 1.985576369521791, 1696622170698857130, 
-0.21782821416854858, -0.19204574823379517, 1.5878644514876563, 1696622170711262364, 
0.10124975442886353, 0.39270883798599243, 2.560428192614955, 1696622170718903639, 
-0.3371887803077698, 0.13774138689041138, 2.128697091601193, 1696622170728033194, 
-0.42860931158065796, -0.7839925289154053, 1.7616263141813922, 1696622170738974618, 
0.06298542022705078, -0.7523831725120544, 1.9335987434420865, 1696622170748924787, 
0.20867961645126343, 0.2691248655319214, 1.711003942522514, 1696622170760125897, 
0.5470638871192932, 0.32359540462493896, 2.167866251549645, 1696622170768929448, 
0.013856887817382812, -0.5260191559791565, 1.9039708791049061, 1696622170778851526, 
-0.3041483163833618, -0.8341612815856934, 1.5285853669847227, 1696622170791254545, 
-0.20890241861343384, 0.24211066961288452, 2.4808839435971723, 1696622170798897277, 
0.05983901023864746, 0.7654556632041931, 1.8752679370954815, 1696622170808915711, 
0.1413329839706421, -0.10153311491012573, 1.8869584696207495, 1696622170818851041, 
-0.12939518690109253, -0.6482627391815186, 1.8771723505629907, 1696622170828875618, 
-0.03036797046661377, 0.1967923641204834, 1.6969086453884263, 1696622170839995217, 
-0.16201502084732056, 0.5092021822929382, 2.1070860633688415, 1696622170848873358, 
-0.21593517065048218, -0.2605956792831421, 1.8668996959837973, 1696622170858794806, 
-0.4776861071586609, -0.752307653427124, 1.6554157146272082, 1696622170869975624, 
-0.27113038301467896, 0.058140456676483154, 2.096822514033467, 1696622170878865476, 
-0.14600330591201782, 0.7760825753211975, 1.8473721900090272, 1696622170888961447, 
-0.5164059996604919, -0.06666046380996704, 1.8633700865421319, 1696622170898976921, 
-0.426749587059021, -0.9008742570877075, 1.90484834806805, 1696622170908882794, 
0.04371124505996704, -0.020334064960479736, 1.7489451074220908, 1696622170919830065, 
0.16848737001419067, 0.8135853409767151, 2.127009356103451, 1696622170928880040, 
-0.21801543235778809, 0.14015913009643555, 1.9255059000887476, 1696622170938860303, 
-0.16988354921340942, -0.9095625281333923, 1.6163115416861575, 1696622170950763545, 
0.06119406223297119, -0.16488516330718994, 2.4066007359958874, 1696622170958802693, 
0.34202200174331665, 0.9219934940338135, 1.885928621852986, 1696622170968954115, 
-0.3616850972175598, -0.8916609287261963, 1.9004841228761653, 1696622170978982201, 
-0.48156923055648804, -0.5081227421760559, 1.8868882012633126, 1696622170988978137, 
-0.09123677015304565, 0.4502266049385071, 1.7559550474071024, 1696622170999762788, 
-0.009821295738220215, 0.19024014472961426, 2.054546862515056, 1696622171008949895, 
-0.17628765106201172, -0.5158377885818481, 1.8935545706339585, 1696622171018895618, 
0.2635655999183655, 0.1877705454826355, 1.6040359817469716, 1696622171030720136, 
-0.03771317005157471, 0.7031627893447876, 2.3838056016895215, 1696622171038742963, 
-0.07972311973571777, -0.189533531665802, 1.8959332464575844, 1696622171048790239, 
-0.3689631223678589, -0.9988794922828674, 1.9017029042159348, 1696622171058731594, 
-0.1926010251045227, -0.000792086124420166, 1.8849865909921362, 1696622171068781892, 
-0.08819615840911865, 0.6873403787612915, 1.670271336072084, 1696622171080132009, 
-0.16849297285079956, -0.03341025114059448, 2.2075325635418053, 1696622171088746428, 
0.005276799201965332, -0.5255564451217651, 1.8825977337040827, 1696622171098871277, 
-0.14078772068023682, 0.08735626935958862, 2.0838125527177316, 1696622171108078648, 
-0.06494295597076416, 0.6587746739387512, 1.9492787735934543, 1696622171117967863, 
-0.6997272372245789, -0.11931818723678589, 2.1258188433521585, 1696622171127040892, 
-0.49491381645202637, -0.637411892414093, 1.772270260772946, 1696622171137939961, 
-0.3424731492996216, 0.07734352350234985, 1.923918254942879, 1696622171147984329, 
0.10852813720703125, 0.2586711645126343, 1.6404173457412696, 1696622171159763348, 
0.4214783310890198, -0.17977619171142578, 2.3471034228188676, 1696622171167971077, 
-0.16022604703903198, -0.23341608047485352, 1.949304413693466, 1696622171177922686, 
-0.18638432025909424, 0.23661333322525024, 1.9345645664192717, 1696622171188003454, 
-0.2892410159111023, 0.04084634780883789, 1.9697319447104895, 1696622171197897911, 
-0.28881192207336426, -0.5164525508880615, 1.8424432891428237, 1696622171208415355, 
-0.27995842695236206, -0.11097007989883423, 2.015508433428818, 1696622171217975213, 
0.09423953294754028, 0.4197879433631897, 1.9436884615300702, 1696622171227832786, 
0.44178926944732666, -0.022071361541748047, 1.577503710998961, 1696622171239924796, 
0.14449167251586914, -0.45537078380584717, 2.4199749795379275, 1696622171247824512, 
-0.21435123682022095, -0.011860132217407227, 1.9020880586393034, 1696622171257843047, 
-0.045247554779052734, 0.33978885412216187, 1.8993421217734678, 1696622171267847038, 
-0.3909103274345398, -0.21293246746063232, 1.894173970437893, 1696622171277778563, 
-0.37568795680999756, -0.4861571788787842, 1.7971401689770024, 1696622171288159589, 
-0.18470144271850586, 0.05439072847366333, 1.9046818582972367, 1696622171297932152, 
0.23708581924438477, 0.34267574548721313, 1.9035039961861626, 1696622171307725675, 
-0.2889478802680969, -0.02589327096939087, 1.57014723597074, 1696622171319651395, 
-0.8900814056396484, -0.4607839584350586, 2.3195083790624595, 1696622171327796233, 
-0.24812054634094238, 0.28733909130096436, 1.9302162911935503, 1696622171337694962, 
-0.35435521602630615, 0.4512099027633667, 1.9182098478742933, 1696622171347736070, 
-0.1890086531639099, -0.10357308387756348, 1.9473620930694973, 1696622171357624012, 
0.08287662267684937, -0.17530739307403564, 1.8572234792289302, 1696622171367984275, 
0.197404682636261, 0.20087915658950806, 1.9794072311439477, 1696622171377717555, 
0.002460777759552002, 0.1743021011352539, 1.9507962175298605, 1696622171387599090, 
-0.19512057304382324, -0.42613691091537476, 1.4948795730334152, 1696622171400449531, 
-0.028468012809753418, -0.37275058031082153, 3.1576175632744907, 1696622171406517462, 
0.0896344780921936, 0.1451796293258667, 1.720768219836592, 1696622171417672057, 
-0.043487548828125, -0.013454675674438477, 1.9388264406958868, 1696622171427546085, 
-0.6879861950874329, -0.47939103841781616, 1.9241969117394822, 1696622171437484306, 
-0.08859115839004517, 0.06162130832672119, 1.828285061972187, 1696622171447969844, 
0.004554033279418945, 0.7217231392860413, 2.006428160411892, 1696622171457522819, 
0.09866708517074585, 0.15972024202346802, 1.9129603591752666, 1696622171467499840, 
0.3310498595237732, -0.39490562677383423, 1.5651065069536378, 1696622171479684139, 
0.015473604202270508, 0.09253263473510742, 2.461970374299255, 1696622171487479489, 
-0.16989421844482422, 0.5990251302719116, 1.9374085332844477, 1696622171497435943, 
-0.7282512784004211, -0.32530510425567627, 1.9387822075016914, 1696622171507400501, 
-0.5247929692268372, -0.742189347743988, 1.9481939523587908, 1696622171517331946, 
-0.1524551510810852, 0.1767672300338745, 1.7137661888801017, 1696622171528642202, 
0.20145922899246216, 0.2733532786369324, 2.1977355580251667, 1696622171537389464, 
0.06223011016845703, -0.5496909618377686, 1.9185937443708903, 1696622171547314599, 
-0.32322537899017334, -0.37739741802215576, 1.5340182926066375, 1696622171559703249, 
-0.2564440369606018, 0.6154121160507202, 2.5194161298012476, 1696622171567289337, 
-0.3366583585739136, 0.46197396516799927, 1.9211250611830506, 1696622171577288616, 
-0.5512375235557556, -0.30328768491744995, 1.929205263753993, 1696622171587272416, 
-0.22056543827056885, 0.010717988014221191, 1.9432587198429974, 1696622171597244185, 
0.09262824058532715, 0.4107157588005066, 1.7749713727932708, 1696622171608147445, 
0.39413875341415405, -0.2543447017669678, 2.1321835229004225, 1696622171617153569, 
-0.1962214708328247, -0.5251777768135071, 1.8800205474262786, 1696622171627288592, 
-0.22563165426254272, 0.14017093181610107, 1.5362942325444093, 1696622171639694727, 
0.17848354578018188, 0.5632395148277283, 2.548129736112073, 1696622171647204592, 
-0.6027103662490845, -0.3451724648475647, 1.9443175040848923, 1696622171657124562, 
-0.623507022857666, -0.3993157744407654, 1.947073821251806, 1696622171667140491, 
-0.2956443428993225, 0.5439496040344238, 1.9721684829393475, 1696622171677089846, 
0.1167803406715393, 0.3667512536048889, 1.808175109939067, 1696622171687927752, 
-0.023215889930725098, -0.4986491799354553, 2.1125399475821562, 1696622171697070720, 
-0.1969793438911438, -0.2698349356651306, 2.1246212759591017, 1696622171706056356, 
0.46866607666015625, 0.3459385633468628, 1.3443789809585025, 1696622171720122811, 
0.5254487991333008, -0.0165368914604187, 2.7354692606224664, 1696622171726991981, 
-0.39590156078338623, -0.31994760036468506, 2.0806285890458343, 1696622171736022352, 
-0.8714307546615601, 0.15879499912261963, 1.890604979686008, 1696622171746027735, 
-0.11932742595672607, 0.15192759037017822, 1.7443128148365588, 1696622171756924915, 
-0.06273669004440308, -0.4058443307876587, 1.8791581145492173, 1696622171767044560, 
-0.05886435508728027, 0.05876368284225464, 1.9208365576138622, 1696622171776929368, 
0.20910942554473877, 0.47182607650756836, 1.8297149314257681, 1696622171787177808, 
0.035448431968688965, -0.0791858434677124, 1.4910861408158465, 1696622171799668392, 
-0.6853089928627014, -0.6608679294586182, 2.590816443223029, 1696622171806883559, 
-0.8066049814224243, 0.17749321460723877, 1.8920530629226322, 1696622171816907467, 
-0.03734862804412842, 0.8865340352058411, 1.911135840347653, 1696622171826919090, 
0.3327649235725403, -0.059914469718933105, 1.9299597093212606, 1696622171836852174, 
-0.15169525146484375, -0.5138083100318909, 1.6488490473239648, 1696622171848518426, 
-0.34170001745224, 0.26143521070480347, 2.3328083193559643, 1696622171856777147, 
0.17770308256149292, 0.5791369080543518, 1.9150244453295873, 1696622171866808931, 
-0.0765344500541687, -0.27030086517333984, 1.4668856139856719, 1696622171879750866, 
-0.6107382774353027, -0.6213271617889404, 2.7102074329693413, 1696622171886761846, 
-0.4208528399467468, 0.1457574963569641, 1.9106222784695799, 1696622171896787421, 
0.2678302526473999, 0.3207332491874695, 1.9389794945352943, 1696622171906762998, 
0.08396226167678833, -0.16439121961593628, 1.965136725645703, 1696622171916694057, 
-0.34607434272766113, 0.0891408920288086, 1.7637106876151423, 1696622171927843612, 
-0.36979740858078003, 0.0924156904220581, 2.236308568938584, 1696622171936653490, 
0.0930318832397461, -0.07696914672851562, 1.9625886961791743, 1696622171946655040, 
-0.4190453886985779, 0.1584795117378235, 1.5360133723642866, 1696622171959354917, 
-0.26644814014434814, 0.4127644896507263, 2.6343143470413906, 1696622171966638283, 
0.4352336525917053, -0.08902198076248169, 1.8907567791642663, 1696622171976687635, 
0.037600934505462646, -0.48539793491363525, 1.9001077580743215, 1696622171986656816, 
-0.39672261476516724, 0.10031616687774658, 1.928818903681992, 1696622171996563854, 
-0.2897886633872986, 0.5068081021308899, 1.6865548506616883, 1696622172007980890, 
-0.11938339471817017, -0.19960510730743408, 2.566222366013457, 1696622172015518181, 
-0.13389575481414795, -0.34300321340560913, 1.7656406660649913, 1696622172026553133, 
-0.22892004251480103, 0.3124961853027344, 1.5281365297694824, 1696622172039351748, 
-0.24967896938323975, 0.16089171171188354, 2.7334538605982712, 1696622172046499481, 
0.03587651252746582, -0.3117470145225525, 1.9157748453258507, 1696622172056567814, 
-0.2958059310913086, -0.11273002624511719, 1.9174481880721737, 1696622172066540842, 
-0.19139140844345093, 0.23783105611801147, 1.8717542302397285, 1696622172076629586, 
0.31528037786483765, 0.10833704471588135, 1.6676362922585093, 1696622172087839698, 
0.2289820909500122, 0.1055220365524292, 2.1656850966774104, 1696622172096436719, 
-0.35481613874435425, 0.302362859249115, 1.8793787726171, 1696622172106383183, 
-0.8076388835906982, 0.11384809017181396, 1.51395094279362, 1696622172118829871, 
-0.05633199214935303, -0.3609200119972229, 2.5120089482003993, 1696622172126406036, 
-0.07867550849914551, -0.05451267957687378, 1.9135001689008908, 1696622172136425565, 
-0.02683234214782715, 0.07186990976333618, 1.9266166579033617, 1696622172146349587, 
0.20411556959152222, -0.5524201989173889, 1.898773927480865, 1696622172156356449, 
-0.0644981861114502, -0.20838302373886108, 1.5895367119945614, 1696622172168299980, 
-0.5032302141189575, 0.7000449299812317, 2.362821749352154, 1696622172176324338, 
-0.44015198945999146, 0.5463392734527588, 1.887459774356144, 1696622172186343366, 
-0.2695024013519287, 0.04470336437225342, 1.5122720835529415, 1696622172198886699, 
-0.43592017889022827, 0.05879765748977661, 2.610295238542889, 1696622172206216900, 
-0.18899065256118774, 0.3270602822303772, 1.9173287047201377, 1696622172216250005, 
-0.02078115940093994, -0.12403851747512817, 1.938590013483422, 1696622172226190458, 
-0.13557612895965576, -0.5555557608604431, 1.9298409554593414, 1696622172236232516, 
0.15851902961730957, 0.16435164213180542, 1.6589176672688082, 1696622172247939065, 
0.08563154935836792, 0.10784769058227539, 2.3607132903126504, 1696622172256176739, 
0.35974133014678955, -0.4369475245475769, 1.9181016597495921, 1696622172266360534, 
-0.08214074373245239, 0.1481720209121704, 1.9966636152360036, 1696622172276155947, 
-0.6012853384017944, 0.5190422534942627, 1.9683549538165548, 1696622172286081339, 
-0.3622736930847168, 0.13400834798812866, 1.8310012396455182, 1696622172296737661, 
-0.1174817681312561, 0.019277513027191162, 2.088998351200081, 1696622172306067649, 
-0.17559456825256348, 0.34106796979904175, 1.9117735096606518, 1696622172316247062, 
-0.22450876235961914, 0.04632151126861572, 1.66538567447581, 1696622172327925102, 
-0.2193698287010193, -0.2958713173866272, 2.376171777759461, 1696622172336071193, 
-0.3710082769393921, 0.046862900257110596, 1.8985246761768728, 1696622172346228713, 
-0.18608593940734863, 0.16880816221237183, 1.9490689875165146, 1696622172356064603, 
-0.20487302541732788, -0.5677787065505981, 1.9241936221326195, 1696622172365975150, 
0.06994926929473877, -0.23956066370010376, 2.1062424844587975, 1696622172375031650, 
0.049077510833740234, 0.6604228615760803, 1.745607857607459, 1696622172385975596, 
-0.2455478310585022, 0.14544439315795898, 1.9183065803916315, 1696622172395964853, 
-0.32104480266571045, -0.3298218846321106, 1.5618319078971012, 1696622172408237912, 
-0.07653576135635376, 0.24039971828460693, 2.4941189620111146, 1696622172415933563, 
-0.04900634288787842, 0.3259791135787964, 1.905920760657603, 1696622172425939065, 
0.07145440578460693, -0.17932045459747314, 1.8876070428344704, 1696622172435971439, 
0.2182447910308838, -0.22724580764770508, 1.9074977575140586, 1696622172445866929, 
-0.06237339973449707, 0.062451958656311035, 1.8529651730444154, 1696622172455992393, 
-0.15190649032592773, -0.10000985860824585, 1.8821356545598542, 1696622172465859378, 
-0.27925020456314087, -0.045787036418914795, 2.0166769795090387, 1696622172475016426, 
-0.5138116478919983, 0.5845808386802673, 1.386620767529165, 1696622172488362041, 
-0.367292582988739, 0.26291561126708984, 2.4785914976930754, 1696622172495855468, 
0.15042632818222046, 0.13006019592285156, 1.8028303722346268, 1696622172506348787, 
-0.3503580689430237, 0.6438301801681519, 2.2145034694058885, 1696622172515022378, 
-0.15929436683654785, -0.10802125930786133, 1.7691174623368218, 1696622172525894536, 
0.3575032949447632, -0.06836569309234619, 1.8476758697737699, 1696622172536247957, 
0.012922286987304688, 0.2671700119972229, 1.9922404213550977, 1696622172545835899, 
0.1749473214149475, 0.26581907272338867, 1.8976789000126557, 1696622172555898848, 
-0.274108350276947, -0.18258792161941528, 1.5696674986403414, 1696622172568011835, 
-0.5221254229545593, -0.055223166942596436, 2.4525932167263886, 1696622172575748618, 
-0.42259132862091064, 0.21173471212387085, 1.9120996655243059, 1696622172585660375, 
-0.23497247695922852, 0.04362422227859497, 1.9127302515921878, 1696622172595635817, 
-0.2162790298461914, 0.00827091932296753, 1.9232060462149758, 1696622172605610417, 
-0.11492741107940674, 0.18676358461380005, 1.9261427787200018, 1696622172615618475, 
-0.36448198556900024, -0.1591867208480835, 1.9442982411399774, 1696622172625542268, 
-0.2675740718841553, -0.029686033725738525, 1.9240494465818656, 1696622172635552830, 
0.03497350215911865, 0.3408704996109009, 1.6683624627913114, 1696622172647027459, 
0.01903635263442993, 0.018575012683868408, 2.238567929147901, 1696622172655487696, 
0.3352707028388977, -0.11809581518173218, 1.876809314384278, 1696622172665525532, 
0.10212439298629761, 0.0486987829208374, 1.8694860912409814, 1696622172675526069, 
-0.17199182510375977, 0.2598590850830078, 1.8678064025633752, 1696622172685523807, 
-0.5823857188224792, 0.1826987862586975, 1.9568840888697814, 1696622172695027456, 
-0.054999709129333496, 0.14984816312789917, 1.7932469659594321, 1696622172705402339, 
-0.04061681032180786, 0.09878885746002197, 1.8772574539088205, 1696622172715427806, 
-0.039112210273742676, -0.05116093158721924, 1.4859471151640198, 1696622172728253997, 
0.1906946301460266, -0.08698529005050659, 2.707206937756237, 1696622172735329537, 
0.039421677589416504, 0.08698582649230957, 1.907587522776679, 1696622172745372618, 
-0.21779382228851318, 0.14354252815246582, 1.9019660701705166, 1696622172755392391, 
-0.1985493302345276, 0.13662934303283691, 1.9034132280042981, 1696622172765336013, 
-0.2785704731941223, 0.12183207273483276, 1.785495721265703, 1696622172775892859, 
-0.5154397487640381, 0.06558698415756226, 2.001244283006433, 1696622172785307944, 
-0.19381344318389893, 0.016212284564971924, 1.8921752915700456, 1696622172795299571, 
-0.08204019069671631, 0.4234234094619751, 1.4005741388593107, 1696622172808844600, 
-0.5144213438034058, 0.050829410552978516, 2.9949538806133678, 1696622172815213807, 
-0.14387065172195435, -0.2699204683303833, 1.907789017988157, 1696622172825282039, 
-0.1907166838645935, 0.15049320459365845, 1.9416869588564003, 1696622172835244653, 
0.05072617530822754, 0.5208170413970947, 1.943886324317634, 1696622172845206634, 
0.31467658281326294, 0.06470900774002075, 1.7325100385652987, 1696622172856281058, 
-0.023040473461151123, -0.285311222076416, 2.1313558703417033, 1696622172865181970, 
0.04403907060623169, 0.01691615581512451, 1.8892124680111133, 1696622172875177819, 
-0.10626792907714844, -0.09750652313232422, 1.876089966745159, 1696622172895112341, 
-0.38937926292419434, 0.0027799010276794434, 1.8592424517228512, 1696622172905109553, 
-0.39545130729675293, 0.19499456882476807, 1.8646075022657853, 1696622172915140589, 
-0.7427349090576172, 0.03567022085189819, 1.901044461579175, 1696622172925079143, 
-0.4834566116333008, 0.4130863547325134, 1.6244485904407715, 1696622172936830117, 
-0.1631835699081421, 0.27591240406036377, 2.329896235456443, 1696622172945074243, 
0.03287690877914429, -0.3289967179298401, 1.9250895239699934, 1696622172955069271, 
-0.06574463844299316, 0.620235025882721, 2.032956789513927, 1696622172974028259, 
-0.16753190755844116, -0.07837015390396118, 1.7466750807953342, 1696622172985006905, 
-0.11237043142318726, -0.37678247690200806, 1.9089606757123816, 1696622172994991961, 
0.04396241903305054, 0.1543622612953186, 1.9188458590655082, 1696622173004910852, 
-0.04573464393615723, 0.27442413568496704, 1.7404372146634166, 1696622173015844113, 
0.07036030292510986, -0.16691124439239502, 2.082353387292265, 1696622173024918390, 
-0.13070017099380493, -0.006937384605407715, 1.8825001811320725, 1696622173034960991, 
-0.38524961471557617, 0.34786510467529297, 1.513494269819633, 1696622173047576335, 
-0.6778314709663391, 0.05689007043838501, 2.635006297704004, 1696622173054883941, 
-0.558412492275238, 0.26497501134872437, 1.9363734188156227, 1696622173064883925, 
-0.3181034326553345, 0.3820347785949707, 1.9469435577367915, 1696622173074864091, 
0.039916157722473145, -0.24763476848602295, 1.9526241939893678, 1696622173084790617, 
0.3016568422317505, 0.07675671577453613, 1.7323834013526425, 1696622173095967010, 
-0.22288286685943604, 0.23737341165542603, 2.202363133228601, 1696622173104764228, 
0.08956867456436157, -0.24421650171279907, 1.9160065738431644, 1696622173114789222, 
-0.234361469745636, -0.14223533868789673, 1.4921116500245042, 1696622173127576731, 
0.327406108379364, 0.4065733551979065, 2.648357451741191, 1696622173134731969, 
0.24977588653564453, 0.10568004846572876, 1.8758765698253776, 1696622173144747926, 
-0.04132789373397827, -0.4217503070831299, 1.8598823659022596, 1696622173154790009, 
0.11557555198669434, 0.1626969575881958, 1.8944665249207917, 1696622173164630110, 
-0.06758195161819458, 0.5220321416854858, 1.6411506443369062, 1696622173175903732, 
0.0027557015419006348, 0.1283673644065857, 2.0980147180589963, 1696622173184628765, 
-0.2392483949661255, 0.10203957557678223, 1.8288961711706408, 1696622173194629789, 
-0.32050323486328125, 0.2692664861679077, 1.4630313608517664, 1696622173207164110, 
-0.6953011751174927, -0.012702703475952148, 2.498405950913093, 1696622173214599417, 
-0.23145002126693726, 0.04786372184753418, 1.873487307404445, 1696622173224629242, 
-0.20631343126296997, 0.06006389856338501, 1.8903766783411493, 1696622173234624573, 
-0.05746102333068848, -0.19481122493743896, 1.9078358705879968, 1696622173244534025, 
-0.015022099018096924, 0.03420209884643555, 1.5943558346449813, 1696622173256379705, 
-0.08255857229232788, 0.3600224256515503, 2.3051545410863956, 1696622173264516686, 
-0.35145848989486694, 0.007011592388153076, 1.8616690690075919, 1696622173274489415, 
-0.19400626420974731, -0.060323894023895264, 1.4855575639230336, 1696622173286971376, 
0.1384526491165161, 0.5654792785644531, 2.46502910781536, 1696622173294467770, 
-0.3409457206726074, 0.35108059644699097, 1.8151038425205979, 1696622173304673680, 
-0.0009961128234863281, 0.004594087600708008, 1.9031260857419965, 1696622173314470884, 
-0.32457226514816284, 0.029549062252044678, 1.8874666229093051, 1696622173324484221, 
-0.29245972633361816, 0.21956050395965576, 1.6560817724893384, 1696622173336015164, 
-0.1819676160812378, 0.07582372426986694, 2.2884524915610913, 1696622173344402360, 
0.11750692129135132, 0.15526700019836426, 1.9322883960161426, 1696622173354392268, 
-0.1945575475692749, -0.0379406213760376, 1.9360688441417804, 1696622173364390100, 
-0.19439488649368286, -0.226728618144989, 1.9295059759489464, 1696622173374405413, 
0.06306278705596924, 0.1576184630393982, 1.8951159019079098, 1696622173384528801, 
-0.30497658252716064, 0.36383306980133057, 1.9537492491188035, 1696622173394342516, 
0.3718990087509155, 0.18907642364501953, 1.9124736674243876, 1696622173404339607, 
0.0204160213470459, 0.20492583513259888, 1.5833050153605672, 1696622173416410614, 
0.27944421768188477, 0.28231507539749146, 2.425891771983619, 1696622173424275875, 
-0.12256336212158203, -0.019791007041931152, 1.8638706460484014, 1696622173434468393, 
-0.11271589994430542, -0.06264203786849976, 1.9348464335829771, 1696622173444283378, 
-0.38534289598464966, 0.19526821374893188, 1.8835380579649872, 1696622173454420320, 
-0.5870674252510071, -0.18291664123535156, 1.9577977538699651, 1696622173464254641, 
-0.17059260606765747, 0.06736117601394653, 1.959451416058357, 1696622173474190844, 
-0.10886073112487793, 0.5734835863113403, 1.9568412620715736, 1696622173484182825, 
-0.03766179084777832, 0.22910141944885254, 1.7913795901248786, 1696622173495063316, 
-0.3016517162322998, 0.001219034194946289, 2.133771720883337, 1696622173504157128, 
-0.009721875190734863, 0.21527832746505737, 1.9392208520457692, 1696622173514116855, 
-0.19119328260421753, -0.03256964683532715, 1.915151625437059, 1696622173524140694, 
-0.07743215560913086, -0.08833783864974976, 1.9151329255926028, 1696622173534079812, 
-0.024877309799194336, 0.1019444465637207, 1.881947594169991, 1696622173544126593, 
0.0690353512763977, -0.04527026414871216, 1.8898335841283722, 1696622173554077075, 
-0.27631545066833496, -0.1845136284828186, 2.087805609978117, 1696622173563045880, 
-0.3468162417411804, 0.2591480016708374, 1.3969258345368343, 1696622173576431336, 
-0.03598904609680176, 0.15349078178405762, 2.4389659174873577, 1696622173584081102, 
0.005585908889770508, -0.0213889479637146, 2.0839852978779083, 1696622173593035476, 
0.14854413270950317, 0.50550377368927, 1.879595188049308, 1696622173603017363, 
-0.14117521047592163, 0.4375724196434021, 1.7183283019069153, 1696622173613967044, 
-0.6299120187759399, -0.10826689004898071, 1.8822407977961475, 1696622173623981175, 
-0.6336130499839783, 0.29889386892318726, 1.9041179453973476, 1696622173633919583, 
-0.1103905439376831, 0.36807185411453247, 1.9003412574579606, 1696622173643908740, 
-0.11585086584091187, -0.40021950006484985, 1.5802945175178567, 1696622173655997435, 
0.14755773544311523, 0.07535147666931152, 2.4263809148430395, 1696622173663937896, 
-0.20255279541015625, 0.23366200923919678, 1.9394829146737518, 1696622173673935554, 
0.06848978996276855, -0.14461612701416016, 1.9501531175941333, 1696622173683866529, 
-0.08387786149978638, 0.25257807970046997, 1.9266225893912257, 1696622173693885853, 
0.19641047716140747, 0.271976113319397, 1.8564380615903633, 1696622173704267845, 
0.42410528659820557, 0.19256329536437988, 2.0081464314683273, 1696622173713832834, 
-0.139296293258667, 0.2511090040206909, 1.895815291595973, 1696622173723918871, 
0.005272030830383301, 8.374452590942383e-05, 1.5738018906874172, 1696622173735950898, 
-0.16669529676437378, -0.15243452787399292, 2.3926689134069146, 1696622173743792286, 
-0.324812650680542, 0.39105719327926636, 1.8712930562560737, 1696622173753773311, 
-0.04235267639160156, 0.48530125617980957, 1.880261764112726, 1696622173763747250, 
-0.2874876856803894, -0.258447527885437, 1.9019786351785186, 1696622173773737398, 
-1.0155686140060425, -0.2401508092880249, 1.9118727208048276, 1696622173783856226, 
-0.3208944797515869, 0.6130712032318115, 1.9843336869409884, 1696622173793659836, 
0.4019213318824768, 0.35254257917404175, 2.1471593522899104, 1696622173802642457, 
-0.26397210359573364, 0.1467263102531433, 1.559568343047594, 1696622173814961906, 
0.06959742307662964, 0.06304198503494263, 2.2128543627860617, 1696622173823626148, 
-0.1017727255821228, 0.08230900764465332, 1.9163665573587099, 1696622173833613506, 
-0.6328743696212769, 0.16290158033370972, 1.9121471084646522, 1696622173843578075, 
-0.43717288970947266, -0.033392250537872314, 1.8897502469468626, 1696622173853599970, 
-0.16854733228683472, -0.37109142541885376, 1.7871050546153473, 1696622173864142913, 
0.26286303997039795, 0.3053572177886963, 2.010123038613119, 1696622173873524133, 
0.5618828535079956, 0.4239143133163452, 1.8889256649276778, 1696622173883505603, 
0.2736847996711731, -0.12591958045959473, 1.4473824365220003, 1696622173896468557, 
-0.4999871850013733, 0.04044497013092041, 2.6550710965429016, 1696622173903505061, 
-0.3394607901573181, 0.4499344229698181, 1.8534461119115835, 1696622173913505070, 
-0.43537819385528564, 0.15267127752304077, 1.8546528795613904, 1696622173923487784, 
-0.19903594255447388, 0.20537060499191284, 1.8593514508764422, 1696622173933509891, 
-0.12484204769134521, 0.16598248481750488, 1.8316262289500083, 1696622173943791906, 
0.0010304450988769531, 0.014641940593719482, 1.9676731968511274, 1696622173953443063, 
-0.3139933943748474, 0.41337263584136963, 1.902594829081499, 1696622173963536023, 
0.3617302179336548, -0.1575295329093933, 1.0509380236725134, 1696622180904936529, 
-0.11299806833267212, 0.626362144947052, 1.8203490636548045, 1696622180912277087, 
0.025761306285858154, 0.21329015493392944, 1.30383759289144, 1696622180922539763, 
-0.4649565815925598, 0.49584609270095825, 1.3914335624820688, 1696622180932221052, 
-0.19000160694122314, 0.5571074485778809, 1.3508911952563056, 1696622180942209328, 
0.0777057409286499, 0.4876689910888672, 1.3484888290976493, 1696622180952249668, 
0.225766122341156, 0.6414788961410522, 1.5336469258358565, 1696622180961105682, 
0.24458754062652588, -0.048154473304748535, 1.2317057410792158, 1696622180972125343, 
-0.1713879108428955, 0.07220441102981567, 1.1231833475518784, 1696622180984175762, 
-0.2604275345802307, 0.2776294946670532, 2.2658788431506207, 1696622180990116473, 
-0.6100679636001587, -0.13027268648147583, 1.2179391542419233, 1696622181001134597, 
-0.24697041511535645, 0.2796916961669922, 1.2343140477289722, 1696622181012009717, 
-0.16876500844955444, 0.09103155136108398, 1.476409572660665, 1696622181021126489, 
0.20242619514465332, 0.4622024893760681, 1.122395738555766, 1696622181033242933, 
0.295573353767395, 0.8667933344841003, 1.5688742974245928, 1696622181041940935, 
-0.3095704913139343, -0.09221810102462769, 1.3307985728264002, 1696622181052151252, 
0.15873265266418457, 0.35891157388687134, 1.1164760180565332, 1696622181064241908, 
-0.332507848739624, 0.2726479768753052, 1.7379188930319514, 1696622181071919931, 
0.08292931318283081, 0.01179957389831543, 1.3164732286594532, 1696622181081925815, 
0.23833250999450684, 0.45928722620010376, 1.2890690766160446, 1696622181091933792, 
-0.19241660833358765, -0.17436474561691284, 1.2821543706754521, 1696622181101918757, 
0.09470319747924805, 0.28176379203796387, 1.218753163043932, 1696622181112497057, 
-0.3308560252189636, 0.7786925435066223, 1.387062724771743, 1696622181121819729, 
-0.08064877986907959, 0.1799052357673645, 1.2894129160374146, 1696622181131917447, 
-0.09222149848937988, 0.38102400302886963, 1.0394295195374537, 1696622181144536755, 
-0.1160506010055542, -0.12927424907684326, 1.8181901569436028, 1696622181151761163, 
0.3929823040962219, 0.019339799880981445, 1.4115034150422066, 1696622181161083944, 
0.33149492740631104, 0.8211656808853149, 1.2151310151338284, 1696622181171810771, 
-0.3081287145614624, 0.040869176387786865, 1.3022741482435487, 1696622181181737912, 
-0.10722488164901733, 0.1469179391860962, 1.2307249760362746, 1696622181192347221, 
-0.4040735363960266, 0.4772574305534363, 1.3956676735559614, 1696622181201755700, 
-0.16763049364089966, 0.47203075885772705, 1.330618574798078, 1696622181211712613, 
0.6258708834648132, 1.0544356107711792, 1.0176817968438707, 1696622181224728923, 
0.32056719064712524, -0.04161769151687622, 1.9065273719147395, 1696622181231639568, 
-0.3177849054336548, -0.17293250560760498, 1.3082195911402106, 1696622181241774768, 
-0.2705509662628174, 0.42266666889190674, 1.3394962124111838, 1696622181251658434, 
-0.5434556007385254, 0.018535137176513672, 1.334856246559843, 1696622181261585465, 
-0.10422801971435547, 0.4059510827064514, 1.2354508238219337, 1696622181272302559, 
-0.16294628381729126, 0.21258068084716797, 1.4335036551609934, 1696622181281575009, 
0.24682128429412842, -0.014574170112609863, 1.3461335324941976, 1696622181291597953, 
0.06985253095626831, 0.8782244324684143, 1.0675475982237264, 1696622181304262591, 
0.0876002311706543, 0.5388645529747009, 1.8381467733663235, 1696622181311545142, 
-0.4699637293815613, 0.24473899602890015, 1.3399210633793734, 1696622181321519728, 
-0.2785162329673767, 0.1604962944984436, 1.32905568055117, 1696622181331539796, 
-0.003027796745300293, -0.02614748477935791, 1.3361918367364878, 1696622181341459560, 
-0.12037569284439087, 0.44747477769851685, 1.1740021099098157, 1696622181352667090, 
0.23477470874786377, 0.28340548276901245, 1.4749370904276888, 1696622181361448453, 
-0.11106657981872559, -0.15707063674926758, 1.2840060010155787, 1696622181371647601, 
-0.27167803049087524, 0.33320730924606323, 1.02955095251996, 1696622181384520620, 
-0.40739530324935913, 0.46830475330352783, 1.9333257006594036, 1696622181391392997, 
0.34318608045578003, 0.6331091523170471, 1.3238063797688295, 1696622181401388546, 
0.5198169946670532, 0.2905800938606262, 1.3013898305052842, 1696622181411397362, 
0.2860671281814575, -0.23197871446609497, 1.2569222889582645, 1696622181421633693, 
0.11004972457885742, 0.265259325504303, 1.1985953806267966, 1696622181432274974, 
-0.1354653239250183, 0.11734932661056519, 1.401129094164534, 1696622181441313689, 
-0.40019023418426514, -0.02863842248916626, 1.2303773362656314, 1696622181451577454, 
-0.2910381555557251, 0.5963253974914551, 1.0032208934009106, 1696622181464262662, 
0.4393960237503052, 0.47694307565689087, 1.7426539025586645, 1696622181471665315, 
0.3446508049964905, 0.6160908937454224, 1.347576827135277, 1696622181481386156, 
-0.20269960165023804, 0.31960195302963257, 1.318721026072601, 1696622181491353023, 
-0.3793798089027405, 0.09329044818878174, 1.32128598976178, 1696622181501291480, 
-0.3129909038543701, 0.44182509183883667, 1.1843713149870463, 1696622181512308170, 
-0.07820212841033936, 0.13332527875900269, 1.4468669138693298, 1696622181521248105, 
0.24833452701568604, 0.25617003440856934, 1.2284106796015022, 1696622181531708665, 
0.02994328737258911, 0.10643422603607178, 1.0564400742963571, 1696622181543821631, 
0.02542322874069214, 0.8876262903213501, 1.7326544963334158, 1696622181551238594, 
-0.419211208820343, 0.4042866826057434, 1.2989920588150514, 1696622181561179878, 
-0.2003665566444397, 0.07340455055236816, 1.2816674977241593, 1696622181571321749, 
0.0885767936706543, 0.3698781728744507, 1.318733305440675, 1696622181581268126, 
-0.07561206817626953, -0.03722256422042847, 1.275067470074406, 1696622181591612430, 
0.37543123960494995, 0.3317687511444092, 1.5731726681767382, 1696622181600034645, 
-0.5253245830535889, 0.16300171613693237, 1.1801986699625402, 1696622181611235595, 
-0.5752060413360596, -0.18255257606506348, 1.169032305929704, 1696622181622498068, 
-0.39377158880233765, 0.7050461769104004, 1.549230805639007, 1696622181631012552, 
0.2987062931060791, 0.4524644613265991, 1.4550380016664637, 1696622181640018898, 
0.7616376876831055, 0.5299355983734131, 1.1722619293740433, 1696622181651166195, 
0.010273218154907227, 0.2212476134300232, 1.328233083830238, 1696622181660988699, 
-0.4720921516418457, -0.30445951223373413, 1.11611221849599, 1696622181672626892, 
0.046975016593933105, 0.660137414932251, 1.5583092261248706, 1696622181680934337, 
0.08529239892959595, 0.35607510805130005, 1.391882129652443, 1696622181690067418, 
0.20661962032318115, -0.3966718912124634, 1.1519206795614536, 1696622181700921717, 
0.40873271226882935, 0.2246454954147339, 1.2568518157911377, 1696622181710839812, 
-0.18999141454696655, 0.24800890684127808, 1.2398535694523753, 1696622181720895727, 
-0.05337804555892944, 0.6509450674057007, 1.2641334925321777, 1696622181730872856, 
-0.21631669998168945, 0.5853517651557922, 1.274483730500807, 1696622181740838989, 
-0.4035148024559021, -0.28116536140441895, 1.1150514463743966, 1696622181752239673, 
0.17250841856002808, 0.5393086075782776, 1.5091231902439475, 1696622181760758859, 
-0.013949692249298096, 0.5041428804397583, 1.273260304370454, 1696622181770800854, 
0.32051241397857666, 0.3453340530395508, 1.2604704214972333, 1696622181780839615, 
0.07640081644058228, 0.4665023684501648, 1.2792192638403503, 1696622181790729699, 
-0.4537949562072754, -0.16598445177078247, 1.230229175644405, 1696622181800974934, 
-0.3312443494796753, 0.3973642587661743, 1.311289731263772, 1696622181810721751, 
-0.1174461841583252, 0.5927444696426392, 1.2930045866281061, 1696622181820709888, 
0.2525681257247925, -0.14712387323379517, 1.0630557281074844, 1696622181832888472, 
0.29196250438690186, 0.2170041799545288, 1.6740157537743763, 1696622181840662120, 
0.0034888386726379395, 0.1143789291381836, 1.2923364939951743, 1696622181850667882, 
-0.3939855098724365, 0.45365673303604126, 1.2709072234227201, 1696622181860707793, 
-0.14260584115982056, 0.6894009709358215, 1.2798818221100163, 1696622181870606820, 
-0.309664785861969, -0.21155571937561035, 1.2587365634235272, 1696622181880647135, 
-0.03876698017120361, 0.042317330837249756, 1.2840888625435798, 1696622181890571988, 
0.08792299032211304, 0.44174808263778687, 1.2617330064299868, 1696622181900777098, 
-0.05640840530395508, 0.340515673160553, 1.0759480660800793, 1696622181912680458, 
0.09205621480941772, 0.5000692009925842, 1.5669296372190364, 1696622181920797310, 
0.0384250283241272, 0.012260496616363525, 1.290915482688496, 1696622181930537761, 
0.04139423370361328, 0.16485708951950073, 1.2451101136065157, 1696622181940599249, 
0.02500927448272705, 0.47501862049102783, 1.217710070226499, 1696622181950859750, 
-0.07890820503234863, -0.13468164205551147, 1.292588322541257, 1696622181960488837, 
-0.2490859031677246, 0.3387805223464966, 1.2574994415921954, 1696622181970500411, 
-0.061599791049957275, 0.471874475479126, 1.2637317784772304, 1696622181980480416, 
-0.1035354733467102, 0.298287570476532, 1.0024717002699817, 1696622181993078479, 
-0.0662844181060791, 0.41713273525238037, 1.6956777226314714, 1696622182000486989, 
0.441520094871521, -0.022167503833770752, 1.1884890799191992, 1696622182010950794, 
-0.19739645719528198, 0.24061930179595947, 1.3016306448789325, 1696622182020448025, 
-0.23852580785751343, 0.596464991569519, 1.247659665656787, 1696622182030361417, 
-0.3208276629447937, 0.01251894235610962, 1.2136483802417515, 1696622182040674052, 
-0.287190318107605, 0.2550545930862427, 1.3265739136994585, 1696622182050304703, 
0.06327986717224121, 0.12084239721298218, 1.2992612081950108, 1696622182060330225, 
0.24878805875778198, 0.25259310007095337, 1.0555235530268725, 1696622182072762916, 
0.3756640553474426, 0.7206792831420898, 1.7245722519811026, 1696622182080332291, 
0.01116335391998291, 0.09558248519897461, 1.2850284425734764, 1696622182090286358, 
0.03839462995529175, 0.5263345241546631, 1.2548914718991897, 1696622182100286175, 
-0.5349774360656738, 0.42108070850372314, 1.2066217689757412, 1696622182110535574, 
-0.3641882538795471, -0.04674738645553589, 1.2141635366466892, 1696622182120717825, 
-0.07521826028823853, 0.40630388259887695, 1.3238489481346645, 1696622182130183918, 
-0.10374236106872559, -0.1528838872909546, 1.2807848268907067, 1696622182140179669, 
0.1561596393585205, 0.12424755096435547, 1.0336681013652156, 1696622182152859559, 
-0.09706735610961914, 0.5765601992607117, 1.7771323004138084, 1696622182160200295, 
-0.025239408016204834, 0.12056118249893188, 1.3021400481271395, 1696622182170174777, 
-0.12715762853622437, 0.6231068968772888, 1.2825407134896631, 1696622182180182663, 
-0.2992316484451294, -0.08987671136856079, 1.3710015317207371, 1696622182189365655, 
-0.11856472492218018, 0.10535025596618652, 1.0793341923579045, 1696622182200926639, 
0.3437284827232361, 0.8646248579025269, 1.5258605465494721, 1696622182209038246, 
0.3448866009712219, -0.07026612758636475, 1.1202601871263436, 1696622182220065079, 
0.14620351791381836, -0.1010122299194336, 1.008111475632316, 1696622182232535993, 
-0.3033762574195862, 0.23714619874954224, 1.9334173030990491, 1696622182239051618, 
-0.2740899324417114, 0.1551145315170288, 1.2549364222833885, 1696622182249042670, 
0.2300761342048645, 0.8143662214279175, 1.2341039101734603, 1696622182259037989, 
-0.22468727827072144, 0.06070774793624878, 1.1027955495616817, 1696622182269993660, 
-0.09929519891738892, -0.0437619686126709, 1.1736480163984677, 1696622182280310447, 
-0.15682196617126465, 0.6567780375480652, 1.2740129402418796, 1696622182289899972, 
-0.025337278842926025, 0.24507290124893188, 1.2252922926634615, 1696622182299994350, 
-0.14758920669555664, 0.4588838219642639, 0.9861280752324529, 1696622182312711235, 
-0.1335403323173523, 0.09609335660934448, 1.745274168461136, 1696622182319900863, 
0.3787534236907959, -0.16830897331237793, 1.260344117633784, 1696622182329908135, 
0.22019922733306885, 0.7278380393981934, 1.2524023186411248, 1696622182339923469, 
0.13862133026123047, 0.34581851959228516, 1.2417559790646158, 1696622182349835911, 
-0.34065157175064087, 0.007433891296386719, 1.1608546357295864, 1696622182360422117, 
-0.26200467348098755, 0.4051879644393921, 1.308456381931647, 1696622182369865800, 
-0.31155794858932495, 0.1017107367515564, 1.2486704041758374, 1696622182379876267, 
0.09885513782501221, 0.6248942613601685, 1.1102461702864885, 1696622182391321118, 
0.3433314561843872, 0.3706434369087219, 1.5177578775563754, 1696622182399732589, 
0.023594200611114502, -0.29604071378707886, 1.281523688867482, 1696622182409724465, 
-0.30435270071029663, 0.2821676731109619, 1.2545848185649402, 1696622182419909965, 
-0.5129157900810242, 0.3200305700302124, 1.2885069939429117, 1696622182429731070, 
-0.12735825777053833, 0.6171730756759644, 1.1426213502784102, 1696622182440707385, 
0.22182607650756836, 0.47457587718963623, 1.377431883426023, 1696622182449724176, 
0.5215624570846558, -0.17109858989715576, 1.2444196366958096, 1696622182459733489, 
0.24994021654129028, 0.23629170656204224, 0.999344225667516, 1696622182472367500, 
-0.16933190822601318, 0.06303644180297852, 1.7131121451466744, 1696622182479767607, 
-0.6368611454963684, -0.1395755410194397, 1.2514309819876066, 1696622182489873975, 
-0.6254449486732483, 0.6193695664405823, 1.261710115393552, 1696622182499836644, 
-0.04171288013458252, 0.25995731353759766, 1.2696144982844937, 1696622182509643625, 
0.3145033121109009, 0.48530834913253784, 1.1488190985824613, 1696622182520294610, 
0.7277026176452637, 0.3707795739173889, 1.2951017638477769, 1696622182529709399, 
0.21075785160064697, -0.17391115427017212, 1.2126849136919033, 1696622182539716406, 
-0.11183738708496094, 0.49947571754455566, 0.9585529536372275, 1696622182552401096, 
-0.19684845209121704, 0.39183175563812256, 1.6690818400119878, 1696622182559648544, 
-0.3474576473236084, 0.08629918098449707, 1.1982625067317318, 1696622182569695802, 
-0.16455399990081787, 0.06726819276809692, 1.2011549477137984, 1696622182579655737, 
-0.3033883571624756, -0.18742865324020386, 1.2023073042050034, 1696622182589620395, 
0.3995552062988281, 0.9076904654502869, 1.0863359315517775, 1696622182600616216, 
0.19429868459701538, 0.8270717859268188, 1.3376639527120409, 1696622182609647484, 
-0.010451078414916992, -0.12708646059036255, 1.221221753825786, 1696622182619644661, 
-0.1840915083885193, 0.20888876914978027, 0.9415122520856241, 1696622182632706805, 
-0.193240225315094, 0.014015495777130127, 1.7943845814725337, 1696622182639572107, 
0.1125381588935852, 0.36076855659484863, 1.2185941370391276, 1696622182649701536, 
-0.2652739882469177, 0.558103621006012, 1.2476701552811038, 1696622182659519223, 
-0.4271072745323181, -0.20203089714050293, 1.2298293027727183, 1696622182669576185, 
-0.2722626328468323, 0.6034612655639648, 1.158258278757357, 1696622182680364313, 
-0.10206329822540283, 0.4531137943267822, 1.36723192099373, 1696622182689515189, 
0.326787531375885, 0.28499066829681396, 1.220224509868844, 1696622182699871201, 
0.4002249240875244, 0.32487136125564575, 1.0113988157016225, 1696622182712282250, 
-0.04738050699234009, -0.5181952118873596, 1.7066601013243334, 1696622182719568864, 
0.09748846292495728, 0.5148446559906006, 1.2186130314029942, 1696622182729618713, 
-0.15722084045410156, 0.7105847597122192, 1.2139324460468308, 1696622182739484515, 
-0.43300217390060425, -0.1771029233932495, 1.1851975022553851, 1696622182749535164, 
-0.04569876194000244, 0.18200933933258057, 1.0619691703901377, 1696622182760713372, 
-0.3606773018836975, 0.1017490029335022, 1.365023657939525, 1696622182769460711, 
0.29066330194473267, 0.7327753901481628, 1.185989706438066, 1696622182779519141, 
0.003102898597717285, -0.2835155725479126, 1.1800556079392346, 1696622182799503916, 
-0.267214298248291, 0.204420268535614, 1.1549978548966435, 1696622182809695568, 
-0.22966128587722778, 0.3798040747642517, 1.198287093106052, 1696622182819467738, 
0.037007272243499756, 0.2171846628189087, 1.1680132821478346, 1696622182829577789, 
-0.026109814643859863, 0.5750260949134827, 1.0522400014576268, 1696622182840879974, 
0.1656600832939148, -0.12034833431243896, 1.406047164199047, 1696622182849404893, 
-0.023715674877166748, 0.1930387020111084, 1.1929634392442166, 1696622182859514579, 
-0.03792029619216919, 0.6431609988212585, 0.9821205597717925, 1696622182871609639, 
-0.09222555160522461, -0.006421804428100586, 1.5133738715459482, 1696622182879483431, 
0.0573883056640625, 0.3364691734313965, 1.1958309933168967, 1696622182889477352, 
-0.042212069034576416, 0.1790338158607483, 1.2030897241799878, 1696622182899467556, 
-0.12316864728927612, 0.2726990580558777, 1.2140069948217165, 1696622182909411226, 
-0.07693248987197876, 0.755882978439331, 1.0668702775069683, 1696622182920787433, 
-0.11923748254776001, -0.040424227714538574, 1.403184320690019, 1696622182929488872, 
-0.2987748384475708, -0.07164949178695679, 1.226340939810475, 1696622182939574234, 
-0.2244822382926941, 0.3006698489189148, 1.0475151778442515, 1696622182951344424, 
0.3089423179626465, 0.27188944816589355, 1.501180318363079, 1696622182959518939, 
0.41142767667770386, 0.718787431716919, 1.2203084752759028, 1696622182969545873, 
-0.08729732036590576, 0.08963018655776978, 1.2307473612439341, 1696622182979512831, 
-0.3617836833000183, 0.12591534852981567, 1.2532467971019556, 1696622182989402585, 
-0.2524203658103943, 0.44808751344680786, 1.1114139076727776, 1696622183000574355, 
-0.09029191732406616, -0.1595677137374878, 1.4032553846234033, 1696622183009383760, 
-0.05242043733596802, 0.2394009232521057, 1.202261698303768, 1696622183019511185, 
0.07946157455444336, 0.3839408755302429, 1.2802873164614528, 1696622183028792995, 
-0.10596823692321777, 0.626914381980896, 1.083733573977528, 1696622183039593944, 
-0.20600992441177368, 0.049353599548339844, 1.169707010010304, 1696622183049558832, 
-0.07037043571472168, 0.12330442667007446, 1.179074830002666, 1696622183059498628, 
0.06998962163925171, 0.44473373889923096, 1.18800155863869, 1696622183069449770, 
-0.2967396378517151, -0.03221410512924194, 1.0529385446116541, 1696622183080731583, 
-0.2370787262916565, 0.1818256974220276, 1.3863515702851523, 1696622183089339292, 
0.16183143854141235, 0.11406499147415161, 1.1809432596885812, 1696622183099422609, 
0.2817533612251282, 0.13211935758590698, 1.2868453707917449, 1696622183108635117, 
0.00019347667694091797, 0.801526665687561, 1.1833646384993328, 1696622183118630812, 
0.07715296745300293, 0.1679263710975647, 1.173110660503063, 1696622183128628675, 
0.08765947818756104, 0.18566417694091797, 1.169124749277173, 1696622183138653139, 
-0.3638266324996948, 0.19686484336853027, 1.173085379980923, 1696622183148639443, 
-0.6002349257469177, 0.05390697717666626, 0.970839118263475, 1696622183160679702, 
-0.05560392141342163, 0.824493944644928, 1.4952414268609007, 1696622183168542464, 
0.08953505754470825, 0.26975351572036743, 1.188070707054108, 1696622183178555301, 
0.3669615387916565, -0.11898070573806763, 1.2174918296762662, 1696622183188530001, 
0.2628960609436035, 0.37438565492630005, 1.2293419187803092, 1696622183198564066, 
0.20696336030960083, 0.2433949112892151, 1.1949758515269453, 1696622183208879569, 
-0.023325443267822266, 0.5070077776908875, 1.2681940642254865, 1696622183218551773, 
-0.6159966588020325, -0.05693084001541138, 1.227498810270635, 1696622183228470104, 
-0.223599374294281, -0.058519959449768066, 1.004218533592334, 1696622183240492203, 
-0.037551283836364746, 0.9629124402999878, 1.518873085236243, 1696622183248414287, 
-0.17476654052734375, 0.12843471765518188, 1.1837491350734617, 1696622183258413322, 
0.23681682348251343, -0.17460286617279053, 1.165789848449126, 1696622183268462583, 
-0.04103034734725952, 0.1350538730621338, 1.1862745548652351, 1696622183278346215, 
0.19541311264038086, 0.42438918352127075, 1.1586714877328999, 1696622183288498249, 
-0.055262863636016846, 0.9616149663925171, 1.1717283439081914, 1696622183298540168, 
-0.15543031692504883, -0.01936131715774536, 1.1835635736566992, 1696622183308303930, 
-0.3030439019203186, -0.252103328704834, 0.945349306751974, 1696622183320451790, 
-0.1426754593849182, 0.753540575504303, 1.4640289695375186, 1696622183328295411, 
0.11394715309143066, 0.4580336809158325, 1.1507499689203298, 1696622183338299716, 
0.11205786466598511, 0.3966161012649536, 1.1791816709255691, 1696622183348206975, 
0.00020170211791992188, -0.1272304654121399, 1.181564848884103, 1696622183358194180, 
-0.250058114528656, -0.3910343647003174, 1.1484129256153883, 1696622183368542363, 
0.14638155698776245, 0.7827216982841492, 1.3843447750774465, 1696622183377146040, 
-0.104922354221344, 0.4067581295967102, 1.1675603858352204, 1696622183387209952, 
-0.3210309147834778, 0.0002129673957824707, 0.9223513693678118, 1696622183399804164, 
-0.348585307598114, 0.15036040544509888, 1.3866134159597467, 1696622183408233124, 
-0.06735110282897949, 0.17258411645889282, 1.3092386617419822, 1696622183417205605, 
0.4310615658760071, 0.7632040977478027, 1.0797498617019208, 1696622183428137780, 
0.6285504102706909, 0.31386512517929077, 1.1743991893319465, 1696622183438098783, 
0.25705474615097046, -0.2653515934944153, 1.0977055059113106, 1696622183448620522, 
-0.2777710556983948, 0.2816246747970581, 1.215425770523452, 1696622183458115457, 
-0.5648960471153259, 0.4502341151237488, 1.293723003968267, 1696622183467022393, 
-0.4597945809364319, 0.5785947442054749, 0.8611759757690111, 1696622183480409035, 
0.2731971740722656, 0.3554922938346863, 1.4623360648549395, 1696622183488257112, 
0.3499698042869568, -0.31405264139175415, 1.3217898101986607, 1696622183497049988, 
0.2977055311203003, 0.3515506386756897, 1.0799420655388567, 1696622183507988416, 
-0.2216286063194275, 0.3085009455680847, 1.1675515794723916, 1696622183518139863, 
-0.6817449927330017, 0.01973581314086914, 1.0637930003249867, 1696622183529276412, 
-0.367275595664978, 0.6086253523826599, 1.3626657062779233, 1696622183537989753, 
-0.2506413459777832, 0.16432487964630127, 1.1924783395437855, 1696622183547965219, 
0.6813336610794067, 0.4534061551094055, 0.9649107053307338, 1696622183560371603, 
0.5085381269454956, 0.2827693223953247, 1.5744421241036628, 1696622183567996363, 
0.06880784034729004, -0.02853173017501831, 1.1951035596454447, 1696622183577912680, 
-0.28310173749923706, 0.6519196033477783, 1.171409734506765, 1696622183587919033, 
-0.7122683525085449, 0.401580274105072, 1.1600318790383093, 1696622183597902979, 
-0.4228585362434387, 0.17482894659042358, 1.0227465651668495, 1696622183609207185, 
-0.4585268497467041, 0.1282239556312561, 1.3354001230367865, 1696622183617851823, 
0.48945343494415283, -0.43002671003341675, 1.1502236126232754, 1696622183627855567, 
0.5369725227355957, 0.46961408853530884, 0.9227951750203284, 1696622183640360829, 
-0.16790729761123657, 0.4800812602043152, 1.5244848917245415, 1696622183647888287, 
-0.5447104573249817, 0.02426302433013916, 1.1614891057374683, 1696622183657746378, 
-0.6390973329544067, 0.6188400983810425, 1.1391395149677586, 1696622183667778804, 
-0.4525654911994934, -0.1516934037208557, 1.166481567326482, 1696622183677721222, 
0.33852481842041016, 0.1890907883644104, 1.078915710391858, 1696622183688730907, 
0.9681368470191956, 0.5775222778320312, 1.3363559525272415, 1696622183697684178, 
0.4051858186721802, -0.10951042175292969, 1.1868539631236188, 1696622183707643382, 
0.043150365352630615, 0.7510014772415161, 0.8602882197945795, 1696622183721085071, 
-0.7973049879074097, 0.4687877297401428, 1.7248062357723983, 1696622183727615218, 
-0.29150253534317017, 0.44242990016937256, 1.1262437197603332, 1696622183737596040, 
-0.03848862648010254, 0.5163054466247559, 1.10507565819369, 1696622183747810862, 
0.1868966817855835, -0.23069030046463013, 1.1661813102870506, 1696622183757574955, 
0.7536844611167908, 0.02194225788116455, 1.0564693966872007, 1696622183768582939, 
0.14613425731658936, -0.087466299533844, 1.2998620688760947, 1696622183777574773, 
-0.4635246992111206, -0.2703944444656372, 1.153878860787707, 1696622183787723538, 
-0.5873798131942749, 0.777972400188446, 0.915200843820975, 1696622183800453501, 
-0.4169817566871643, 0.4339117407798767, 1.6413960267189442, 1696622183807441403, 
-0.23835855722427368, 0.33435577154159546, 1.144399425127383, 1696622183817469550, 
0.7179090976715088, 0.6800733208656311, 1.1543693220375348, 1696622183827465858, 
0.45778435468673706, 0.07868415117263794, 1.1580140476783132, 1696622183837521784, 
-0.15764325857162476, 0.5469256043434143, 1.001773237141254, 1696622183849243264, 
-0.39014607667922974, 0.27831751108169556, 1.4195562291111985, 1696622183857461953, 
-0.9625596404075623, 0.0538022518157959, 1.1592696435629213, 1696622183867539573, 
-0.21196198463439941, 0.4047282934188843, 0.9007481154010716, 1696622183880551636, 
-0.15170317888259888, -0.16806477308273315, 1.7189431741005192, 1696622183887350826, 
0.2513313889503479, 0.14668536186218262, 1.1683291060564485, 1696622183897363203, 
0.29545682668685913, 0.5214909315109253, 1.158258784833069, 1696622183907381334, 
0.008649289608001709, 0.3173986077308655, 1.156282750390096, 1696622183917291727, 
-0.3714906573295593, 0.24010205268859863, 0.974013682309087, 1696622183928893624, 
-0.11421710252761841, 0.21538251638412476, 1.3360470455042555, 1696622183937248944, 
0.4541671872138977, 0.5481550097465515, 1.1132212425892498, 1696622183947266111, 
0.31145942211151123, 0.29745936393737793, 0.8862850428550202, 1696622183959962032, 
0.08863389492034912, 0.0770270824432373, 1.5609867107736293, 1696622183967215651, 
-0.27247828245162964, -0.14961981773376465, 1.1352161378512242, 1696622183977235395, 
0.08863365650177002, 0.1589619517326355, 1.2681650662270603, 1696622183986200290, 
-0.5462552905082703, 0.4555917978286743, 1.123522223153308, 1696622183996230730, 
-0.15417110919952393, 0.5172423720359802, 0.8947556578411983, 1696622184008756483, 
0.12730354070663452, 0.36220407485961914, 1.3259032219436697, 1696622184017153136, 
0.196769118309021, 0.13041329383850098, 1.1270042484132043, 1696622184027115380, 
-0.020244479179382324, 0.173056960105896, 0.9144501832440319, 1696622184039635505, 
-0.10335010290145874, 0.08455365896224976, 1.541462603305466, 1696622184047122110, 
-0.3001824617385864, 0.2991873621940613, 1.1543540593980186, 1696622184057119528, 
-0.5111744999885559, 0.5299252867698669, 1.2922127460526718, 1696622184066019044, 
0.027587532997131348, 0.3484111428260803, 1.0437642458052918, 1696622184077013349, 
-0.09815937280654907, 0.17373394966125488, 1.0035244160444663, 1696622184088607297, 
0.05480092763900757, 0.06596076488494873, 1.5927621337218016, 1696622184096053888, 
-0.115439772605896, 0.24512940645217896, 1.1878494208753057, 1696622184106025962, 
-0.24292564392089844, 0.2707356810569763, 0.8804642572137665, 1696622184119501067, 
0.07125556468963623, 0.04551684856414795, 1.5804694775959347, 1696622184126966865, 
-0.22731631994247437, 0.22814273834228516, 1.1659419827161002, 1696622184136982244, 
-0.034854888916015625, 0.1300969123840332, 1.1650673317174818, 1696622184146955532, 
0.4100761413574219, 0.5763462781906128, 1.1538277525583873, 1696622184156891529, 
0.2714306116104126, 0.47579336166381836, 0.9051812896456675, 1696622184169386955, 
0.36521977186203003, 0.033316075801849365, 1.4957910262909127, 1696622184176889025, 
0.2727857232093811, 0.3864940404891968, 1.1019679159512648, 1696622184186921152, 
-0.14969688653945923, 0.09941971302032471, 0.8555759107510721, 1696622184199690694, 
-0.3571960926055908, 0.1571500301361084, 1.5219865877202206, 1696622184206861714, 
-0.4550018310546875, 0.4771912693977356, 1.0767531648805087, 1696622184216893368, 
-0.2771604657173157, -0.16290658712387085, 1.0986030563509182, 1696622184226782874, 
-0.16968071460723877, 0.3951873779296875, 1.186109811439133, 1696622184236042117, 
0.5150703191757202, 0.4945729374885559, 0.8826595178488854, 1696622184248604211, 
0.17945325374603271, 0.10363703966140747, 1.3825617080333006, 1696622184256728012, 
-0.08008068799972534, 0.4670010209083557, 1.0936289569978193, 1696622184266965421, 
-0.5063725113868713, -0.16931062936782837, 1.1431787197198429, 1696622184276764523, 
-0.6134612560272217, 0.4510204792022705, 1.1229181267468418, 1696622184286693425, 
-0.06693863868713379, 0.9269039034843445, 1.0723241281190883, 1696622184296974142, 
-0.01500171422958374, -0.2786603569984436, 1.1421851143544464, 1696622184306687261, 
0.9149585366249084, 0.0573880672454834, 1.1292404823392042, 1696622184316675293, 
-0.3496454954147339, 0.18384402990341187, 0.9593705866450133, 1696622184328505223, 
-0.49784690141677856, 0.4504481554031372, 1.4032862590745057, 1696622184336614770, 
-0.2667376399040222, 0.953039824962616, 1.099328834554082, 1696622184346879752, 
-0.28648751974105835, -0.2701665163040161, 1.1696361412879213, 1696622184356605653, 
0.39146512746810913, 0.03481650352478027, 1.1622992263448433, 1696622184366565046, 
0.3962783217430115, 0.5648514628410339, 1.1380876036817378, 1696622184376662074, 
0.3262309432029724, 0.23293882608413696, 1.152055830116417, 1696622184386559609, 
-0.21234792470932007, 0.42389726638793945, 1.1093041834091721, 1696622184396727500, 
-0.3840481638908386, -0.08672106266021729, 0.9410781368422549, 1696622184408640582, 
-0.43541282415390015, 0.17253875732421875, 1.4314203095118438, 1696622184416526458, 
0.3931571841239929, 0.9348630309104919, 1.1210887893176202, 1696622184426493315, 
0.6035186648368835, -0.03418499231338501, 1.1047683333933143, 1696622184436491459, 
0.12387752532958984, -0.12765741348266602, 1.1126318832220912, 1696622184446419978, 
-0.12135028839111328, 0.13516396284103394, 1.0859841675514403, 1696622184456532540, 
-0.4098832607269287, 0.33782994747161865, 1.0997943433556234, 1696622184466436043, 
-0.39410173892974854, 0.96661376953125, 1.052739477416323, 1696622184476636993, 
-0.1265086531639099, -0.3387947678565979, 1.4399921941429377, 1696622184496421526, 
0.407956600189209, 0.22029244899749756, 1.0782584844512164, 1696622184506478651, 
0.025532186031341553, 0.5971237421035767, 1.0899953404496292, 1696622184516456166, 
-0.23720449209213257, 0.6915926337242126, 1.081566097103541, 1696622184526550954, 
-0.27558648586273193, 0.10329979658126831, 1.0901092622958144, 1696622184536591412, 
-0.41514575481414795, -0.04429018497467041, 1.130922940177284, 1696622184546349779, 
0.19902998208999634, 0.008852839469909668, 1.0818245406867537, 1696622184556623488, 
-0.028664886951446533, 0.09047460556030273, 0.9331906609014795, 1696622184568596014, 
-0.05809837579727173, 0.6394501328468323, 1.4406592505960414, 1696622184576425739, 
-0.1652544140815735, 0.4481568932533264, 1.129576841348961, 1696622184586420210, 
-0.16396158933639526, 0.5759257078170776, 1.2739037082457891, 1696622184595283491, 
0.17985475063323975, 0.0770907998085022, 1.024895438377674, 1696622184606376978, 
-0.26009851694107056, -0.11286181211471558, 1.138229092183586, 1696622184616421662, 
-0.1439732313156128, 0.37872767448425293, 1.1765788599541105, 1696622184626150857, 
0.25828123092651367, 0.3831564784049988, 1.1332143925318932, 1696622184636166740, 
-0.006361663341522217, 0.4395315647125244, 0.9032178539426338, 1696622184648565532, 
-0.11143910884857178, 0.22941887378692627, 1.467207777638172, 1696622184656129679, 
-0.06554943323135376, 0.2864956855773926, 1.1181374967913682, 1696622184666103701, 
-0.15842163562774658, 0.5660402178764343, 1.1213308661962682, 1696622184676128902, 
-0.08696222305297852, 0.044213831424713135, 1.1290268838261084, 1696622184686062336, 
0.11125993728637695, -0.06773322820663452, 1.0378421923020913, 1696622184696803194, 
0.10942000150680542, 0.21156007051467896, 1.2053896769577483, 1696622184706006384, 
-0.29971516132354736, -0.013230741024017334, 1.0846237974561765, 1696622184716230906, 
-0.16252809762954712, 0.4442950487136841, 0.8523633712665978, 1696622184729220628, 
-0.4056023359298706, -0.09193646907806396, 1.6376571214410394, 1696622184735981835, 
-0.06591612100601196, -0.011534631252288818, 1.0832447360923816, 1696622184746232423, 
0.12173652648925781, 0.7756808400154114, 1.1373875374525844, 1696622184756000440, 
0.2618972063064575, 0.37288373708724976, 1.1154269061277304, 1696622184765926461, 
0.4101298451423645, 0.589823305606842, 1.0303165564012693, 1696622184776621159, 
-0.31157130002975464, 0.012899279594421387, 1.1736992783308926, 1696622184785879253, 
-0.18976515531539917, 0.062432825565338135, 1.0778437168420445, 1696622184795875822, 
-0.24734723567962646, 0.8277727961540222, 0.8352205928473558, 1696622184808782611, 
0.12408894300460815, 0.10348629951477051, 1.5057651973242632, 1696622184815864698, 
0.48568832874298096, -0.15250509977340698, 1.0619010350066727, 1696622184825915854, 
0.01871657371520996, 0.29104340076446533, 1.0606773592193726, 1696622184835943606, 
-0.22663390636444092, 0.2666444182395935, 1.0728304792595251, 1696622184845814521, 
0.09920626878738403, 0.7697404026985168, 0.9515284397526381, 1696622184857009825, 
-0.22984439134597778, -0.054770827293395996, 1.2151364230161015, 1696622184865759236, 
0.020832598209381104, -0.3571546673774719, 1.0699495291746761, 1696622184875761140, 
0.15843528509140015, 0.6594504714012146, 0.8419378529812153, 1696622184888557949, 
-0.019863545894622803, 0.5136005282402039, 1.4775370091234254, 1696622184895784013, 
-0.019954442977905273, 0.6899018883705139, 1.05833053671947, 1696622184905782234, 
-0.16064655780792236, 0.25278013944625854, 1.056809643255408, 1696622184915782040, 
-0.015426933765411377, -0.4860351085662842, 1.0690525526455674, 1696622184925732114, 
-0.1807817816734314, 0.5560321807861328, 0.8946472670382779, 1696622184937806575, 
-0.28636395931243896, 0.4191585183143616, 1.366823676941679, 1696622184945662523, 
-0.44225746393203735, 0.08142364025115967, 1.0705584358200668, 1696622184955657843, 
-0.09620881080627441, 0.4435198903083801, 0.8177770974716976, 1696622184968925892, 
-0.18064022064208984, -0.11812818050384521, 1.6597936741572181, 1696622184975599898, 
-0.1869482398033142, 0.5062912106513977, 1.1325507170984412, 1696622184985667295, 
0.33995556831359863, 0.6247736215591431, 1.146100856005061, 1696622184995670854, 
-0.17337685823440552, -0.16024523973464966, 1.1573993538462084, 1696622185005595175, 
-0.055764973163604736, 0.25934016704559326, 1.0222347014200144, 1696622185016815777, 
-0.6176167726516724, 0.3407283425331116, 1.30264090819431, 1696622185025515789, 
-0.14259159564971924, 0.830645740032196, 1.1224023595772912, 1696622185035502914, 
0.3290635943412781, -0.4123227000236511, 1.0903460589848144, 1696622185055698133, 
0.4590284824371338, 0.004683256149291992, 1.1290325992187327, 1696622185065482549, 
-0.26746493577957153, 0.27237969636917114, 1.1007063606920389, 1696622185075529243, 
-0.6340078115463257, -0.01989680528640747, 1.1046213190940897, 1696622185085461314, 
-0.07367408275604248, 0.6456628441810608, 0.9427035292001265, 1696622185096998680, 
0.18528640270233154, 0.1416913866996765, 1.2803639557831645, 1696622185105397045, 
0.7149258255958557, 0.4268927574157715, 1.0670235364448981, 1696622185115535315, 
0.7101501226425171, 0.45122361183166504, 0.8563094816878162, 1696622185128223438, 
-0.33594590425491333, -0.05505746603012085, 1.4808520163438101, 1696622185135535586, 
-0.2319316267967224, 0.4712122678756714, 1.0733051606894655, 1696622185145625526, 
-0.7912161350250244, 0.2775598168373108, 1.1063630008827554, 1696622185155384123, 
-0.4314778447151184, -0.02266305685043335, 1.0781042586366572, 1696622185165442615, 
-0.23996388912200928, 0.3651450276374817, 0.9343515571274222, 1696622185177111733, 
0.02092432975769043, -0.06963330507278442, 1.29198815015524, 1696622185185619486, 
0.8530082106590271, 0.5830279588699341, 1.297905398817282, 1696622185194268301, 
-0.10120934247970581, 0.15903759002685547, 1.0811473203877202, 1696622185215178721, 
-0.5447997450828552, 0.46967417001724243, 1.1241986908161237, 1696622185225216792, 
-0.22955864667892456, 0.05884850025177002, 1.1175677969527527, 1696622185235286665, 
-0.2922291159629822, 0.15196961164474487, 1.138558418846446, 1696622185245168850, 
-0.0612146258354187, 0.3686540126800537, 0.9421765238460669, 1696622185257010877, 
0.6716172695159912, -0.25721776485443115, 1.352795266635144, 1696622185265136087, 
0.08978652954101562, 0.6232855319976807, 1.0551896345829632, 1696622185275398352, 
-0.4142035245895386, 0.3181266784667969, 0.7867719957592967, 1696622185288958567, 
-0.4142035245895386, 0.3181266784667969, 1.729543500024123, 1696622185295090449, 
-0.11340349912643433, 0.1922488808631897, 1.0136162947582927, 1696622185305512427, 
-0.4998161792755127, -0.5135881304740906, 1.240035682926751, 1696622185314025811, 
0.2968898415565491, 0.3984251618385315, 1.0551547371530932, 1696622185324040930, 
0.6710816621780396, 0.7222356796264648, 0.814616539819427, 1696622185336900505, 
-0.09271830320358276, -0.15571415424346924, 1.2986278175042978, 1696622185344980664, 
-0.5922591090202332, -0.008894145488739014, 1.155127180068701, 1696622185354225544, 
-0.8127615451812744, -0.02111804485321045, 0.9969966640100666, 1696622185365076783, 
0.0495450496673584, 0.5220978260040283, 1.0668389001930625, 1696622185385569246, 
0.773305356502533, -0.29622215032577515, 1.1645807262931325, 1696622185394869226, 
-0.08862900733947754, 0.08441436290740967, 1.0768631190451938, 1696622185404900129, 
-0.25135350227355957, 0.6061999201774597, 0.9145285402809483, 1696622185416630089, 
-0.6655782461166382, 0.8643431663513184, 1.2967331655687422, 1696622185424874991, 
-0.27685946226119995, 0.6561547517776489, 1.0573717053599196, 1696622185434879681, 
-0.008801758289337158, -0.5030216574668884, 1.0549623252804938, 1696622185444911930, 
0.17204225063323975, -0.05055272579193115, 1.0658702996540796, 1696622185455006433, 
0.34804099798202515, 0.8279485702514648, 1.0906752995060298, 1696622185464865981, 
0.09445422887802124, 0.3845427632331848, 1.0758906207126944, 1696622185474748061, 
-0.1310482621192932, 0.2794153690338135, 1.0553469201093881, 1696622185484778306, 
-0.7853562831878662, -0.3044635057449341, 0.8806172263446465, 1696622185496791100, 
-0.05349719524383545, 0.14028555154800415, 1.3478509607407818, 1696622185504718058, 
0.1806889772415161, 0.8722591400146484, 1.0763684564609568, 1696622185514733402, 
0.42944246530532837, 0.26073455810546875, 1.072530411899048, 1696622185524798521, 
-0.10826605558395386, 0.028768301010131836, 1.0614933451979476, 1696622185535086473, 
-0.38685017824172974, 0.14395791292190552, 1.2085359066025176, 1696622185544164802, 
-0.2963787317276001, 0.5051820874214172, 1.0419717985806232, 1696622185554664454, 
-0.32708966732025146, 0.7924512624740601, 1.0516542773095716, 1696622185564935056, 
0.26143622398376465, 0.1340274214744568, 0.9568033984646955, 1696622185576053438, 
0.37381815910339355, -0.16670554876327515, 1.2389882001185435, 1696622185584621894, 
-0.08496284484863281, 0.18257862329483032, 1.0640532916127714, 1696622185594603986, 
-0.5971837043762207, -0.06587690114974976, 1.0623654491531056, 1696622185604642910, 
-0.403627872467041, 0.4724796414375305, 1.0591034072265524, 1696622185614706150, 
0.10032689571380615, 0.2695860266685486, 1.0448275351127838, 1696622185624891666, 
0.8052570819854736, 0.07867288589477539, 1.1002818083218826, 1696622185634545748, 
0.6524180769920349, 0.46446382999420166, 1.0378991589585032, 1696622185644712843, 
-0.18043243885040283, 0.14871591329574585, 0.8743530385112009, 1696622185656660336, 
-0.40359359979629517, 0.4432695508003235, 1.3229479643353494, 1696622185664529366, 
-0.3791573643684387, 0.45270323753356934, 1.0429523064030628, 1696622185674468987, 
-0.3070836067199707, 0.017925024032592773, 1.0314948139698343, 1696622185684498206, 
-0.09499293565750122, 0.33473920822143555, 1.0284352688373748, 1696622185694500636, 
0.16094708442687988, 0.03424566984176636, 0.9403081340669605, 1696622185705316572, 
0.0753941535949707, 0.3408272862434387, 1.1030615027013393, 1696622185714584271, 
0.20507270097732544, 0.8194788098335266, 1.0425353455451878, 1696622185724432027, 
-0.31940317153930664, 0.029675006866455078, 0.8958508783779662, 1696622185736051053, 
-0.05533832311630249, 0.14385628700256348, 1.2693958327639616, 1696622185744367876, 
0.06102544069290161, 0.17378681898117065, 1.065906056559143, 1696622185754323227, 
0.07013249397277832, 0.12575554847717285, 1.066939547650489, 1696622185764332950, 
-0.019005537033081055, 0.6067157983779907, 1.072845059308594, 1696622185774292662, 
-0.3989969491958618, -0.11856752634048462, 1.055337816945366, 1696622185784477991, 
-0.18261069059371948, 0.24110442399978638, 1.2181552883425333, 1696622185793288853, 
0.20828592777252197, 0.6317341923713684, 1.0587721704852937, 1696622185803314987, 
0.06665730476379395, 0.6443265676498413, 0.9952263469755472, 1696622185824265462, 
-0.4510360360145569, -0.030172526836395264, 1.03692313498803, 1696622185834216635, 
-0.5031301975250244, 0.13350921869277954, 1.0456801180505897, 1696622185844181683, 
-0.11771410703659058, 0.6168086528778076, 1.0476668803886995, 1696622185854141959, 
0.37002110481262207, -0.25621306896209717, 0.9751334553774271, 1696622185864879801, 
0.41648465394973755, -0.08809143304824829, 1.1281125756287085, 1696622185874139861, 
-0.018474698066711426, 0.46992576122283936, 1.0268368262242933, 1696622185884168572, 
-0.27374786138534546, 0.6303924918174744, 0.774266711444843, 1696622185897302950, 
-0.4174143075942993, 0.8420892357826233, 1.4660450275960908, 1696622185904139128, 
-0.18742066621780396, -0.13410991430282593, 1.0078746242215277, 1696622185914092370, 
0.10147833824157715, -0.09729528427124023, 1.0231462410746128, 1696622185924076080, 
0.18044209480285645, 0.5318469405174255, 1.1486152838117374, 1696622185933042630, 
0.22748124599456787, 0.38357383012771606, 0.8842138370063148, 1696622185944797596, 
-0.502216100692749, 0.3284648060798645, 1.2742282491497479, 1696622185953019721, 
-0.24022620916366577, -0.10733944177627563, 0.9557327190392839, 1696622185964062753, 
-0.30229651927948, -0.15307855606079102, 0.851750363747892, 1696622185976612728, 
0.39168256521224976, 0.7900900840759277, 1.418617562644174, 1696622185984076714, 
0.7025614380836487, 0.42732876539230347, 1.0411945996460146, 1696622185993997045, 
0.2177712321281433, 0.20575332641601562, 1.0071276095459853, 1696622186004122429, 
-0.4056401252746582, 0.11955833435058594, 1.0394930521905306, 1696622186013916383, 
-0.44478416442871094, 0.1413116455078125, 0.9271053087313275, 1696622186024983119, 
0.058779239654541016, 0.5825527906417847, 1.1491388616344376, 1696622186033963339, 
0.12351340055465698, 0.1994086503982544, 0.9735713220718923, 1696622186044603326, 
0.024013876914978027, -0.24917739629745483, 0.8674261801769565, 1696622186056691001, 
-0.4566608667373657, 0.3731490969657898, 1.3425347950583923, 1696622186064602786, 
-0.10884988307952881, 0.7204490303993225, 1.05625782844658, 1696622186074733432, 
0.35228848457336426, 0.3036347031593323, 1.0815965850591869, 1696622186084691395, 
0.5444658398628235, 0.012886524200439453, 1.0825798719993212, 1696622186094668725, 
0.40897971391677856, 0.5291845798492432, 1.0714695514626646, 1696622186104764526, 
-0.3942410349845886, 0.3352622389793396, 1.0981019319694982, 1696622186114538062, 
-0.7429097890853882, 0.2179492712020874, 1.044458962005164, 1696622186124692848, 
-0.46145713329315186, 0.31941646337509155, 0.9053348941189877, 1696622186136349109, 
-0.25599247217178345, -0.16131120920181274, 1.4026506052661207, 1696622186143806601, 
0.6988310813903809, 0.31610238552093506, 1.0494212703601753, 1696622186153720383, 
0.4200918674468994, 0.16103780269622803, 1.0294844411506217, 1696622186163727546, 
-0.28406667709350586, 0.0019463300704956055, 1.0264588001115018, 1696622186173676823, 
-0.6042115688323975, 0.4074869155883789, 0.9177813627409308, 1696622186184828791, 
0.043091535568237305, 0.011905550956726074, 1.1744386575648005, 1696622186193637608, 
0.13281947374343872, 0.18995368480682373, 1.0243119011140944, 1696622186203835629, 
0.3407769203186035, 0.18853729963302612, 0.8257451008483563, 1696622186216377531, 
0.4951993227005005, 0.19657182693481445, 1.3438336565479105, 1696622186223934120, 
-0.25345712900161743, 0.8931606411933899, 1.0222861382311152, 1696622186233621328, 
-0.21642661094665527, 0.31190866231918335, 0.9826320733567653, 1696622186243561238, 
-0.24051713943481445, 0.09233391284942627, 0.9676039808187612, 1696622186253659895, 
0.0656169056892395, 0.32565563917160034, 0.9069550673348873, 1696622186264457386, 
0.15311962366104126, 0.03380352258682251, 1.0845831693328793, 1696622186273554943, 
0.1424056887626648, 0.667380154132843, 1.0027651410574756, 1696622186283570642, 
-0.3652452230453491, 0.44207853078842163, 0.8237503985879904, 1696622186295897443, 
-0.3528646230697632, -0.1456892490386963, 1.3476528791590012, 1696622186303542405, 
-0.33568793535232544, 0.41019296646118164, 1.053192896246423, 1696622186313464384, 
0.035639941692352295, 0.19130319356918335, 1.0455716720115367, 1696622186323436747, 
0.5512475371360779, 0.5395197868347168, 1.050098630446659, 1696622186333440815, 
-0.09987598657608032, 0.32641369104385376, 0.9107283474047759, 1696622186344928417, 
-0.33311229944229126, -0.3150244355201721, 1.227590278289311, 1696622186353407721, 
-0.011736392974853516, 0.6410504579544067, 1.019487092715578, 1696622186363660512, 
0.042020320892333984, 0.26032018661499023, 0.8527651642744463, 1696622186375785769, 
0.22111696004867554, -0.12869560718536377, 1.3702935926963637, 1696622186383315867, 
0.31055253744125366, 0.4992510676383972, 1.1494440117139697, 1696622186392315423, 
-0.014487206935882568, 0.19504684209823608, 1.019863605435264, 1696622186402291219, 
0.3551308512687683, 0.7433751821517944, 0.8989981427988121, 1696622186413352414, 
-0.0006725192070007324, 0.2665090560913086, 0.8650702303676817, 1696622186424692429, 
-0.09827888011932373, -0.32351046800613403, 1.1398993719955561, 1696622186433293029, 
0.09763342142105103, 0.5288828015327454, 0.9889121028403562, 1696622186443340641, 
-0.3669484257698059, 0.26535964012145996, 0.8081848245566453, 1696622186455617034, 
-0.2797190546989441, 0.3339619040489197, 1.310692308320961, 1696622186463190113, 
-0.2808036804199219, 0.34917521476745605, 0.9912866605101022, 1696622186473208588, 
-0.08331698179244995, -0.3304239511489868, 0.997481619271159, 1696622186483133778, 
-0.08270561695098877, 0.47847771644592285, 0.9978686211364114, 1696622186493182149, 
0.20449042320251465, 0.7294726967811584, 0.8855100314846605, 1696622186504443940, 
-0.1117507815361023, 0.21454554796218872, 1.1443460417632187, 1696622186513164238, 
-0.23898154497146606, 0.28077393770217896, 0.9885878343375849, 1696622186523361560, 
-0.39873170852661133, -0.14092129468917847, 1.037655411001697, 1696622186533132067, 
-0.23226529359817505, 0.37048500776290894, 1.0281820423353385, 1696622186543163397, 
0.19291174411773682, 0.6575467586517334, 1.178072772887254, 1696622186552057394, 
0.020634770393371582, 0.0007866024971008301, 0.9596463587331696, 1696622186563059145, 
-0.007243335247039795, 0.03158384561538696, 1.1921370739219157, 1696622186572035410, 
-0.06569886207580566, 0.3046855926513672, 0.8546245883572532, 1696622186584569726, 
0.013766765594482422, 0.5751739740371704, 1.4137614780730379, 1696622186592025806, 
0.4391478896141052, 0.5858407616615295, 0.935538419272115, 1696622186603066229, 
0.5917769074440002, 0.040539443492889404, 1.004820497526442, 1696622186613077482, 
0.04851531982421875, 0.048434436321258545, 0.9986504155827689, 1696622186622994359, 
-0.0932660698890686, 0.24868690967559814, 1.0888448976638136, 1696622186632023857, 
-0.2681276798248291, 0.204279363155365, 0.9044303124174018, 1696622186642893891, 
-0.46169769763946533, 0.48541104793548584, 0.9944477058804856, 1696622186652896164, 
-0.11052429676055908, 0.17282634973526, 0.8348107247326588, 1696622186664947967, 
0.4067431688308716, 0.07886272668838501, 1.2820767647749252, 1696622186672870208, 
0.13764017820358276, 0.38335102796554565, 1.0023065150035348, 1696622186683117284, 
-0.1562352180480957, 0.1773296594619751, 1.043476116594111, 1696622186692949888, 
-0.24907922744750977, 0.4830045700073242, 1.03242771861489, 1696622186702807680, 
-0.40873074531555176, 0.28690099716186523, 1.0076170620658949, 1696622186712857633, 
-0.16698527336120605, 0.08048629760742188, 1.0162232928861408, 1696622186722786764, 
-0.3614159822463989, 0.17611080408096313, 1.0017032526322596, 1696622186732813047, 
0.014691948890686035, 0.13817214965820312, 0.8309156900515073, 1696622186744860242, 
0.18156403303146362, 0.5232067704200745, 1.2728640987220463, 1696622186752748545, 
0.006014764308929443, 0.26883649826049805, 0.9893252628099257, 1696622186762928858, 
0.23672914505004883, -0.07621824741363525, 1.0205445542285294, 1696622186772795460, 
0.14096522331237793, 0.2739691734313965, 1.0053036788788352, 1696622186782695669, 
-0.20437264442443848, 0.13296860456466675, 0.9340575511222182, 1696622186793238263, 
0.00792628526687622, 0.33860594034194946, 1.034809629137115, 1696622186802686628, 
0.10571390390396118, 0.5304803848266602, 0.9768160159463584, 1696622186812680730, 
0.11837828159332275, -0.06545937061309814, 0.8256964061884255, 1696622186824617927, 
0.24520736932754517, 0.40582549571990967, 1.2313780000454944, 1696622186832639522, 
0.20049327611923218, 0.32614487409591675, 0.9801067883259298, 1696622186842617119, 
0.2152022123336792, 0.3884076476097107, 0.963337801609803, 1696622186852627653, 
-0.3635405898094177, 0.5975334644317627, 0.956313686759091, 1696622186862574287, 
-0.41973865032196045, -0.1992725133895874, 0.9189699225740706, 1696622186872850865, 
-0.0847061276435852, 0.35371679067611694, 0.9818426346417347, 1696622186882549107, 
0.08229118585586548, 0.6160417795181274, 0.9662829051120044, 1696622186892507984, 
0.20135033130645752, -0.014357328414916992, 0.8256772844436904, 1696622186904497192, 
-0.13845419883728027, 0.2176145315170288, 1.2785867607239718, 1696622186912493618, 
-0.4859146475791931, 0.09710091352462769, 1.0429050064921743, 1696622186922448812, 
-0.33800530433654785, 0.3674866557121277, 1.0393134709265444, 1696622186932512411, 
0.4132094383239746, 0.6074358820915222, 1.0377070303099352, 1696622186942428550, 
0.5013962984085083, -0.15143746137619019, 0.9650520041450329, 1696622186952900929, 
0.12069690227508545, 0.4863833785057068, 1.0536600037220092, 1696622186962386817, 
-0.42871832847595215, 0.4867253303527832, 0.9845219160431169, 1696622186972415062, 
-0.471360445022583, 0.2568357586860657, 0.8600816024408028, 1696622186983956964, 
0.0824354887008667, 0.4203503131866455, 1.1928320914309414, 1696622186992344709, 
0.526854932308197, -0.2366422414779663, 0.9954161042996975, 1696622187002347789, 
0.667944610118866, 0.04927462339401245, 0.9833305174197209, 1696622187012388438, 
0.11901342868804932, 0.7871385216712952, 0.9727684171140872, 1696622187022322748, 
-0.5266638398170471, 0.3438507914543152, 0.920641743219593, 1696622187032616898, 
-0.6662622690200806, 0.2315664291381836, 0.9840864987694501, 1696622187042272844, 
-0.23367702960968018, -0.1734607219696045, 0.9487104147399325, 1696622187052270567, 
0.04111981391906738, 0.06340944766998291, 0.78218039819583, 1696622187064533416, 
0.4838173985481262, 0.7355010509490967, 1.2622664941214414, 1696622187072253745, 
0.14526253938674927, 0.29895681142807007, 0.9682319296632709, 1696622187082412555, 
-0.46721166372299194, -0.17596614360809326, 1.016025688221043, 1696622187092224046, 
-0.6034427285194397, -0.042598187923431396, 1.0024509800033286, 1696622187102264316, 
-0.2547622323036194, 0.34018999338150024, 0.93743977213755, 1696622187112981107, 
0.25670289993286133, 0.866421103477478, 1.0647597921389436, 1696622187122220356, 
0.5501625537872314, 0.4969363808631897, 0.9422376228135737, 1696622187132478767, 
0.4112497568130493, 0.0008584260940551758, 0.809523798284671, 1696622187144511155, 
-0.1961963176727295, 0.16157537698745728, 1.2987441240096376, 1696622187152183386, 
-0.10176742076873779, 0.1711849570274353, 1.0047477058337366, 1696622187162178511, 
-0.2612123489379883, 0.28032416105270386, 1.120502927714902, 1696622187171093513, 
0.2002260684967041, 0.3607819676399231, 0.9811409912821201, 1696622187181112391, 
0.03462272882461548, 0.013722121715545654, 0.8277558021618975, 1696622187192860748, 
0.02430969476699829, 0.494825541973114, 1.06986999728889, 1696622187202003575, 
-0.01739722490310669, 0.2636336088180542, 1.079017823997794, 1696622187211094572, 
0.06566345691680908, 0.13974148035049438, 0.7326450184790658, 1696622187224498685, 
0.04906415939331055, 0.38028907775878906, 1.3029132534608987, 1696622187231984591, 
-0.12572920322418213, 0.31954896450042725, 0.971262761985289, 1696622187241998850, 
-0.3405658006668091, 0.553138256072998, 0.9798501312863646, 1696622187251929421, 
-0.400912344455719, 0.017565488815307617, 0.9851438030690134, 1696622187261875328, 
-0.06911569833755493, -0.10296708345413208, 0.9257455917501776, 1696622187272613709, 
0.045439302921295166, 0.596331000328064, 1.0804685312413775, 1696622187281841758, 
0.11235833168029785, 0.3212674856185913, 1.073751446662328, 1696622187291073786, 
0.026506423950195312, 0.34746628999710083, 0.6933731476348266, 1696622187305305212, 
-0.33812904357910156, 0.07342875003814697, 1.5187353489382058, 1696622187311827737, 
0.01550966501235962, -0.3151041269302368, 1.0017300788437018, 1696622187321874327, 
0.27417057752609253, 0.43625158071517944, 1.011503582219623, 1696622187331860586, 
0.0021596550941467285, 0.2211742401123047, 1.0120195250828008, 1696622187341787925, 
0.12742656469345093, 0.2074403166770935, 0.9282975303985072, 1696622187352488588, 
-0.07794052362442017, 0.6542853116989136, 1.0612445617353692, 1696622187361716612, 
-0.14539819955825806, 0.12677150964736938, 0.9796884206266949, 1696622187371742736, 
0.42741239070892334, 0.5188536643981934, 0.7631006038871976, 1696622187384517534, 
0.2384088635444641, 0.012735545635223389, 1.3250614425929141, 1696622187391729117, 
0.17416143417358398, -0.01953226327896118, 0.9475917917639709, 1696622187401726347, 
-0.08370423316955566, 1.0941364765167236, 0.9353882261445087, 1696622187411725064, 
-0.23947834968566895, 0.26020169258117676, 0.9462971952064003, 1696622187421718113, 
0.03727257251739502, -0.31709516048431396, 0.8712415636718508, 1696622187432986415, 
-0.20225870609283447, 0.13888108730316162, 1.1587704343771255, 1696622187441615985, 
-0.08810722827911377, 0.2060043215751648, 0.9880619970028169, 1696622187451763286, 
0.2707594633102417, 0.9527809619903564, 0.7727045644139414, 1696622187464554606, 
-0.05520951747894287, 0.07561749219894409, 1.3379539059466397, 1696622187471854781, 
-0.43577420711517334, -0.45764458179473877, 1.0139830603581028, 1696622187481622693, 
0.100841224193573, 0.5177731513977051, 0.9932599600882109, 1696622187491605888, 
0.3018139600753784, 0.3856685161590576, 0.9902927493506135, 1696622187501596737, 
-0.10823523998260498, 0.5958690047264099, 0.8839175265492233, 1696622187512808097, 
0.06136775016784668, 0.3199121356010437, 1.1366208446664285, 1696622187521504464, 
-0.19859182834625244, -0.2994458079338074, 1.0040402430986612, 1696622187531453516, 
0.0777711272239685, 0.6330776214599609, 0.7841033559053391, 1696622187544145697, 
0.3407481908798218, 0.3083927035331726, 1.3349725570054465, 1696622187551460976, 
0.38765889406204224, -0.09914791584014893, 0.9586411164210878, 1696622187561523649, 
-0.024275124073028564, 0.2830135226249695, 0.9556674828332642, 1696622187571515789, 
-0.5978432893753052, 0.18576174974441528, 0.9584302622617041, 1696622187581430256, 
-0.26935189962387085, 0.1980864405632019, 0.8540801672362269, 1696622187592505005, 
-0.055002689361572266, -0.48307013511657715, 1.0325722967125284, 1696622187601598344, 
0.5698717832565308, 0.32852303981781006, 0.9528331299331473, 1696622187611525614, 
0.06001996994018555, 0.5946928858757019, 0.7791992419645605, 1696622187623704851, 
-0.16515421867370605, 0.49945563077926636, 1.2359073672439476, 1696622187631342533, 
-0.33842378854751587, 0.08589547872543335, 0.9310745363482517, 1696622187641536689, 
-0.17649656534194946, -0.36588799953460693, 0.961359796204531, 1696622187651495507, 
0.3718496561050415, 0.40143775939941406, 0.9937606577208082, 1696622187661296919, 
0.255992591381073, 0.36607426404953003, 0.8532690679324072, 1696622187672624920, 
-0.10324203968048096, -0.04661756753921509, 1.102963130803189, 1696622187681264184, 
-0.284321129322052, 0.5159865617752075, 0.9619248749325799, 1696622187691218574, 
0.2632879614830017, 0.38525527715682983, 0.9625011762538284, 1696622187701244750, 
0.5872833728790283, 0.5791699886322021, 0.9827309432696137, 1696622187711117463, 
0.2994767427444458, 0.3218502998352051, 0.9572186687478867, 1696622187721179134, 
-0.12386637926101685, -0.08566027879714966, 0.9482191797691498, 1696622187731145020, 
-0.5676701068878174, 0.5103411674499512, 0.9372673201353858, 1696622187741131356, 
-0.278842568397522, 0.1153687834739685, 0.7705488907605418, 1696622187753310276, 
-0.13918519020080566, -0.10999804735183716, 1.2189292357238737, 1696622187761091678, 
0.11846166849136353, 0.32921797037124634, 0.9646060453932755, 1696622187771085171, 
0.13522100448608398, -0.017200767993927002, 0.9732871470207314, 1696622187781163065, 
0.2206905484199524, 0.6044374108314514, 1.0111045656893716, 1696622187790995347, 
-0.35062581300735474, 0.30616700649261475, 0.9754763499991169, 1696622187801068295, 
-0.4278761148452759, -0.25373947620391846, 0.9737379053207286, 1696622187810972734, 
0.34707772731781006, 0.6658521294593811, 1.039570436789218, 1696622187820046318, 
-0.40529799461364746, 0.20918768644332886, 0.7291163051876258, 1696622187832641052, 
0.10634511709213257, 0.4598744511604309, 1.1141923234701545, 1696622187840997635, 
0.18052995204925537, 0.21241426467895508, 0.9583208725288714, 1696622187850934335, 
0.024118244647979736, -0.4834859371185303, 0.9223269737667992, 1696622187861409280, 
0.4417440891265869, 0.6147431135177612, 1.0261343909500316, 1696622187870885259, 
-0.2289801836013794, 0.34440356492996216, 0.8799061500913405, 1696622187881755502, 
0.044528305530548096, 0.31260406970977783, 1.0367287415698503, 1696622187890875011, 
-0.38097649812698364, 0.49620914459228516, 0.9419369488717848, 1696622187900884226, 
-0.32094281911849976, -0.4708777070045471, 0.8428588618606917, 1696622187912022865, 
-0.01493757963180542, 0.5563650131225586, 1.060845919103007, 1696622187920885157, 
0.3860759735107422, 0.7180613875389099, 0.9385488434140685, 1696622187930872595, 
-0.06782335042953491, -0.3307878375053406, 0.9263644478418926, 1696622187940894106, 
-0.24504882097244263, 0.2781548500061035, 0.927450567251116, 1696622187950904602, 
-0.0192263126373291, 0.23542416095733643, 0.929364045405198, 1696622187960876286, 
0.056451261043548584, 0.6513398885726929, 0.9436653276104848, 1696622187970860795, 
0.2639343738555908, 0.7956559658050537, 0.9643675268149121, 1696622187980729362, 
-0.07404989004135132, 0.0931011438369751, 0.949346665992002, 1696622188000762565, 
0.17647409439086914, 0.42297041416168213, 0.9639436966731022, 1696622188010730086, 
0.18501293659210205, 0.09377163648605347, 0.9564649697918637, 1696622188020808081, 
0.32043886184692383, 0.39642101526260376, 0.9812799770284957, 1696622188030663705, 
-0.5206625461578369, 0.4093131422996521, 0.950993675120872, 1696622188050657708, 
0.08321332931518555, 1.0149840116500854, 0.9447355962927142, 1696622188060636029, 
-0.1483721137046814, -0.03390777111053467, 0.7440644204225229, 1696622188073212136, 
0.0007879734039306641, 0.17417079210281372, 1.27697056856985, 1696622188080613530, 
0.7938198447227478, 0.1197195053100586, 0.9493470370611584, 1696622188090585670, 
-0.15486323833465576, 0.4456571936607361, 0.9370632372718773, 1696622188100691787, 
0.03242850303649902, 0.8443608283996582, 0.9651038236485663, 1696622188110542020, 
-0.33262836933135986, -0.20523226261138916, 0.9175103206306212, 1696622188120872080, 
-0.21423661708831787, -0.4763415455818176, 0.9608167530811769, 1696622188130814032, 
-0.008633017539978027, 0.2647731900215149, 0.9940765217519448, 1696622188140467522, 
-0.11715424060821533, 0.5580003261566162, 0.7768353253879313, 1696622188152687338, 
-0.1633266806602478, 0.6621754169464111, 1.2059948522823467, 1696622188160441403, 
-0.11238151788711548, -0.03373265266418457, 1.0117263005068575, 1696622188169682857, 
0.3022766709327698, -0.3230363726615906, 0.8720045024895836, 1696622188180558207, 
0.13639581203460693, 0.2914627194404602, 0.9782604102292751, 1696622188190423479, 
0.41058993339538574, 0.27147436141967773, 0.87502958514911, 1696622188201324255, 
-0.6726866364479065, 0.48515820503234863, 1.0396444509652458, 1696622188210355993, 
-0.6082708835601807, 0.302814245223999, 0.9257671652653521, 1696622188220390401, 
0.45613694190979004, -0.034591853618621826, 0.7512163464624796, 1696622188232697230, 
0.7798917293548584, 0.6450787782669067, 1.206793827699258, 1696622188240332448, 
0.7750806212425232, 0.34335577487945557, 0.9015240866980448, 1696622188250442155, 
-0.39872878789901733, 0.18903851509094238, 0.9120410392220223, 1696622188260333240, 
-0.19111502170562744, 0.12386995553970337, 0.9016256963350361, 1696622188270338703, 
-0.5577457547187805, -0.4030570983886719, 0.8658641536807234, 1696622188280859530, 
-0.16075193881988525, 0.109225332736969, 0.9755115988890936, 1696622188290218127, 
-0.04487234354019165, 0.33529049158096313, 0.9044285688796266, 1696622188300270584, 
-0.34109222888946533, 0.5093401074409485, 0.7253321682335211, 1696622188312892062, 
0.3562348484992981, 0.8098556399345398, 1.2674940815501359, 1696622188320230057, 
-0.2078729271888733, -0.21671825647354126, 0.9581066156010004, 1696622188330146381, 
0.3207769989967346, 0.23722714185714722, 0.9557323674968178, 1696622188340204216, 
-0.44502657651901245, 0.4332956075668335, 0.9691863506670471, 1696622188350116401, 
-0.4045398235321045, 0.2504538893699646, 0.914198586309516, 1696622188360650404, 
-0.029299259185791016, 0.5011515021324158, 1.0281197144079797, 1696622188370177009, 
-0.23775511980056763, -0.40940338373184204, 0.9983668370353227, 1696622188380214914, 
0.3680573105812073, -0.041105031967163086, 0.7804649376271341, 1696622188393285965, 
0.16894668340682983, 0.7330995202064514, 1.4640630395944918, 1696622188400128021, 
0.22370368242263794, 0.31571251153945923, 1.093511895397139, 1696622188409040182, 
-0.24528688192367554, 0.5483238697052002, 0.8335265475053415, 1696622188420483954, 
-0.47211217880249023, -0.254452109336853, 0.9870153812757552, 1696622188429984504, 
-0.016699373722076416, -0.11500436067581177, 0.8665203372364085, 1696622188440778548, 
0.35450994968414307, 0.7492415308952332, 0.98777462511286, 1696622188450002332, 
0.4646129608154297, 0.017619669437408447, 0.866874032215858, 1696622188460222965, 
-0.229411780834198, 0.1336790919303894, 0.7202957502765899, 1696622188472542183, 
-0.48086726665496826, 0.26738864183425903, 1.3764774476721227, 1696622188479045777, 
-0.13711822032928467, 0.137806236743927, 0.9125253183768427, 1696622188489026355, 
0.4829598069190979, 0.791320264339447, 0.9250247553009676, 1696622188499060468, 
0.7141309380531311, -0.04379755258560181, 0.8352353182824463, 1696622188509988211, 
-0.16752177476882935, -0.08020985126495361, 0.8172357907951793, 1696622188521088307, 
-0.41687464714050293, 0.4117122292518616, 1.015241884960513, 1696622188529973699, 
-0.23556309938430786, -0.11628454923629761, 0.9938343096340183, 1696622188539054073, 
-0.18012547492980957, 0.331698477268219, 0.707738191889781, 1696622188552017106, 
0.31345856189727783, 0.42376190423965454, 1.3112460697179404, 1696622188559036927, 
0.41923272609710693, 0.017458796501159668, 0.843313017051368, 1696622188569986726, 
0.18534672260284424, 0.5734934210777283, 0.914718840248426, 1696622188579949468, 
-0.21877771615982056, 0.14024853706359863, 0.8945105130790111, 1696622188589942245, 
0.013589143753051758, 0.12367331981658936, 0.8369033231985785, 1696622188600664445, 
0.22931307554244995, 0.3862800598144531, 0.9764861666449105, 1696622188609888713, 
-0.07094931602478027, 0.2612587809562683, 0.8783255222020002, 1696622188620116258, 
0.03879427909851074, 0.6086384057998657, 0.7121308331370821, 1696622188632733656, 
0.008382737636566162, 0.17215222120285034, 1.2515993861003452, 1696622188639971987, 
-0.000643610954284668, -0.4913119673728943, 0.9283961052627182, 1696622188649888377, 
-0.26661401987075806, 0.18396586179733276, 0.9267362969186386, 1696622188659947920, 
-0.38572007417678833, 0.6450505256652832, 0.9298031906574454, 1696622188669869914, 
-0.05336803197860718, 0.6959102153778076, 0.8541808416586496, 1696622188680616162, 
0.042646944522857666, 0.08005255460739136, 1.0000303900015686, 1696622188689809317, 
-0.07146018743515015, -0.5429838299751282, 0.9319094251844044, 1696622188699846992, 
-0.2118549346923828, 0.4182353615760803, 0.9381287367138769, 1696622188719847920, 
