acc_x, acc_y, angular_z, stamp, 
-2.5097150802612305, -0.8518272042274475, 0.30431420579148005, 1696621397956140899, 
-2.1645169258117676, -0.6780165433883667, 0.2197685483072322, 1696621397966861458, 
-1.253068447113037, -1.0361782312393188, 0.25411688200673915, 1696621397976868218, 
-0.7170723676681519, 0.06962531805038452, 0.22628406982338672, 1696621397986827773, 
-0.3420429229736328, -0.25767189264297485, 0.1309302521850353, 1696621397998357998, 
0.15289700031280518, -0.26521003246307373, 0.045293766721813004, 1696621398006883996, 
0.11313903331756592, 0.15381568670272827, -0.10132833411993315, 1696621398016879726, 
0.12308281660079956, -0.3001607656478882, -0.18826293635604796, 1696621398029665095, 
0.44455987215042114, -0.19459956884384155, -0.4750978256710779, 1696621398036817419, 
0.3494289517402649, -1.2178127765655518, -0.36185253786402205, 1696621398047306087, 
0.2253648042678833, -0.3558775782585144, -0.3964132227947807, 1696621398056814003, 
0.21457034349441528, -0.19371169805526733, -0.3552315698038388, 1696621398066813935, 
0.533490002155304, -0.5911746025085449, -0.2954401402566712, 1696621398078261556, 
0.645844578742981, 0.3386514186859131, -0.40153495977245685, 1696621398086775941, 
0.3305692672729492, -0.16822224855422974, -0.37100551883462995, 1696621398096843505, 
0.15562784671783447, 0.4819045662879944, -0.3344763652391289, 1696621398109972616, 
0.23174846172332764, -0.05432194471359253, -0.7784115411241569, 1696621398116840061, 
0.38465940952301025, -0.2101675271987915, -0.6276410401832767, 1696621398126835787, 
0.26411259174346924, 0.32861244678497314, -0.7047015093490576, 1696621398136896666, 
0.004293680191040039, -0.2814478278160095, -0.8521258003628288, 1696621398146057702, 
-1.1675708293914795, -1.0515618324279785, -0.7773943624585328, 1696621398166802937, 
-1.3187612295150757, -0.7286722660064697, -0.7335756066420948, 1696621398176859291, 
-0.9498884677886963, -0.6326035261154175, -0.5407222745504009, 1696621398189090928, 
-0.5517853498458862, -0.4956228733062744, -0.777104327323221, 1696621398196827464, 
-0.09960079193115234, 0.22149723768234253, -0.5755591594783016, 1696621398206788745, 
0.23487257957458496, -0.10145938396453857, -0.578698830779808, 1696621398216897415, 
0.36571991443634033, 0.29348886013031006, -0.6335363595657523, 1696621398226767652, 
0.2235790491104126, 0.2443978190422058, -0.5956860038704046, 1696621398238228553, 
0.13895738124847412, -0.062090277671813965, -0.8519393223905065, 1696621398246783617, 
0.25053632259368896, 0.2018643021583557, -0.7578586358823391, 1696621398256779336, 
0.24154949188232422, -0.055752575397491455, -0.6117214161217548, 1696621398269015795, 
0.2572441101074219, -0.22243207693099976, -0.9077908056376712, 1696621398276711234, 
-0.13258492946624756, 0.23192906379699707, -0.6330164948478629, 1696621398286717615, 
-0.20494484901428223, -0.04488229751586914, -0.528088539858573, 1696621398297156376, 
-0.01693248748779297, 0.2650386691093445, -0.4939194250163377, 1696621398306707346, 
-0.41478919982910156, -0.025929749011993408, -0.3515360003953664, 1696621398318407670, 
-0.8505269289016724, -0.2327510118484497, -0.42756098400248665, 1696621398326687074, 
-1.2176438570022583, -0.6711278557777405, -0.28880032169410125, 1696621398336761706, 
-1.2546823024749756, -0.996738076210022, -0.23018801245972534, 1696621398346360284, 
-1.2055939435958862, -0.04914456605911255, -0.13988907801788036, 1696621398356826757, 
-1.0935635566711426, -0.25492793321609497, -0.08325050561535939, 1696621398366702701, 
-0.7759188413619995, -0.17215478420257568, -0.045777071054906505, 1696621398375994399, 
-0.8437966108322144, -0.25110721588134766, -0.025506866393737847, 1696621398385191540, 
-0.8861563205718994, -0.0780382752418518, -0.010654653595591335, 1696621398397755086, 
-0.6386439800262451, 0.23931127786636353, -0.01762456471088729, 1696621398405933537, 
-0.6264001131057739, 0.04985111951828003, -0.02373721028231202, 1696621398416010756, 
-0.5181297063827515, 0.29421091079711914, -0.03511743729422517, 1696621398426291836, 
-0.5329784154891968, 0.005083560943603516, -0.05139552025266447, 1696621398436007410, 
-0.635796308517456, 0.005617082118988037, -0.05483099164133289, 1696621398446595157, 
-0.5247570276260376, 0.1853812336921692, -0.06850587265201749, 1696621398456190197, 
-0.5859739780426025, -0.0036936402320861816, -0.07956834343051597, 1696621398465867312, 
-0.680970311164856, 0.13045692443847656, -0.07189165302638932, 1696621398477758135, 
-0.7563215494155884, -0.14750927686691284, -0.11031427684302816, 1696621398485797669, 
-0.8290696144104004, -0.053913414478302, -0.09542117991575257, 1696621398495037356, 
-0.8194446563720703, -0.05180346965789795, -0.08097938829409088, 1696621398505861718, 
-0.7798160314559937, -0.12096565961837769, -0.08862358463831166, 1696621398515808953, 
-0.7864614725112915, 0.10002404451370239, -0.08842322566046212, 1696621398526317816, 
-0.8298559188842773, -0.07942807674407959, -0.1085472078170443, 1696621398535733220, 
-0.7500766515731812, 0.09315156936645508, -0.11103915751590997, 1696621398545751496, 
-0.7553573846817017, -0.0941934585571289, -0.11145670573080085, 1696621398565720535, 
-0.7003556489944458, 0.07426601648330688, -0.09367862250816422, 1696621398575977479, 
-0.7047455310821533, -0.16656088829040527, -0.0834544988520029, 1696621398585706802, 
-0.7509216070175171, -0.10294610261917114, -0.05734087916610499, 1696621398595701566, 
-0.807824969291687, -0.27373969554901123, -0.02582718089311752, 1696621398605760604, 
-0.7355529069900513, -0.20968949794769287, 0.011283269133422208, 1696621398615699523, 
-0.7358158826828003, -0.2043750286102295, 0.05160571411564529, 1696621398625589377, 
-0.735292911529541, -0.29747647047042847, 0.07578530562743299, 1696621398637092242, 
-0.5937159061431885, -0.08872395753860474, 0.13870721574750583, 1696621398645594267, 
-0.4471874237060547, -0.14357244968414307, 0.13625787328677347, 1696621398655929838, 
-0.42346978187561035, -0.1317225694656372, 0.1847795213047082, 1696621398664586691, 
-0.3405928611755371, -0.12358170747756958, 0.17635424242369246, 1696621398674503439, 
-0.2818591594696045, -0.1204872727394104, 0.16639547848259648, 1696621398685850662, 
-0.24335312843322754, -0.17270416021347046, 0.20577747703864985, 1696621398695955207, 
-0.28571462631225586, -0.2669195532798767, 0.24296300774490065, 1696621398705411992, 
-2.0066025257110596, 1.48947274684906, 0.23985660154452826, 1696621398717747053, 
1.0519354343414307, 1.3787750005722046, 0.5556829723041765, 1696621398725478003, 
-0.6698722839355469, -0.3040124773979187, 0.5590843229463981, 1696621398735788018, 
-1.660874605178833, 0.46082788705825806, 0.7409280820984921, 1696621398745464715, 
0.8573892116546631, -0.1845497488975525, 0.8888257899181288, 1696621398755401057, 
0.2647261619567871, -0.41767460107803345, 0.9710577643033907, 1696621398766249044, 
-1.119753122329712, -0.40479278564453125, 1.2951735585075081, 1696621398775344405, 
-0.15508294105529785, -0.9286050200462341, 1.2702351104826395, 1696621398785320309, 
1.4471237659454346, -0.7244343757629395, 1.355017036737718, 1696621398805501612, 
0.038109540939331055, -0.9114519953727722, 1.4848283005805996, 1696621398815310846, 
-1.4499878883361816, -0.8064493536949158, 1.5121605596042984, 1696621398825330771, 
-0.12708282470703125, -1.3071701526641846, 1.571256476088265, 1696621398835308532, 
0.027168989181518555, -0.9605133533477783, 1.4816936077858638, 1696621398846124929, 
-0.6403229236602783, -0.8328768014907837, 1.7484835441221116, 1696621398855284051, 
0.4323611259460449, -0.8352885842323303, 1.5866723631701785, 1696621398865222668, 
0.397554874420166, -0.6588858366012573, 1.51390245467533, 1696621398885136089, 
1.0748109817504883, -0.38036656379699707, 1.3251256359659207, 1696621398895202877, 
4.678150177001953, -5.44901704788208, 1.0175410777599314, 1696621398905187915, 
7.677852630615234, -1.5219976902008057, 0.6817990842356204, 1696621398915187297, 
2.524980306625366, 0.35373014211654663, 0.3884221759076911, 1696621398925740398, 
3.0693325996398926, 1.7540936470031738, 0.17506078695448565, 1696621398935088235, 
4.612818717956543, 0.899268388748169, -0.041863218174060024, 1696621398945059241, 
4.272497653961182, 0.13569313287734985, -0.44256307374469034, 1696621398964059449, 
7.273425102233887, -0.9392090439796448, -0.7977507102630449, 1696621398975102039, 
4.987382888793945, -0.6409804821014404, -1.1498049506824097, 1696621398985118503, 
2.415041208267212, 0.7003565430641174, -1.3373113755394053, 1696621398995073040, 
4.074172496795654, 1.340083360671997, -1.4736415673494276, 1696621399015275539, 
2.792835235595703, 1.725623369216919, -1.6255408431164964, 1696621399025125587, 
1.1531881093978882, 1.6732797622680664, -1.2761796252147932, 1696621399037923245, 
0.5096398591995239, 1.783402442932129, -2.6785942924875403, 1696621399044036921, 
-0.23449444770812988, 1.3277748823165894, -1.4853328041771714, 1696621399054923896, 
0.013405203819274902, 1.3546077013015747, -1.534834848572347, 1696621399065059606, 
0.19124829769134521, 1.1430819034576416, -1.4875766141577278, 1696621399074891741, 
0.11542713642120361, 0.3479498028755188, -1.2099023120768844, 1696621399086298872, 
-0.06064176559448242, 0.363092303276062, -1.5154380098963083, 1696621399094879567, 
0.34001100063323975, 0.2183384895324707, -1.2169067453311373, 1696621399104827550, 
1.1990141868591309, 0.3860994577407837, -0.9096114289078027, 1696621399117028433, 
1.5005501508712769, 0.20944702625274658, -1.2816586767172065, 1696621399124767907, 
1.2984426021575928, 0.5769078135490417, -0.8493463528244241, 1696621399134748980, 
1.3156201839447021, 1.2444571256637573, -0.6887874594147191, 1696621399144763858, 
1.846750259399414, 1.1975538730621338, -0.5297387206132015, 1696621399154901735, 
1.9483819007873535, 1.7685612440109253, -0.36592737654539037, 1696621399165946486, 
1.5466759204864502, 1.6679109334945679, -0.35009943050443254, 1696621399174697294, 
1.405065655708313, 1.7145781517028809, -0.22123552441635444, 1696621399184923183, 
1.1967113018035889, 1.745168685913086, -0.1255827911966282, 1696621399197358527, 
0.8456979393959045, 1.5464385747909546, -0.13331567074454884, 1696621399204647653, 
0.5714014768600464, 1.4186781644821167, -0.04350895949891189, 1696621399214654325, 
0.26371002197265625, 0.5658254623413086, 0.0016025277446385848, 1696621399224656522, 
0.13109052181243896, 0.19773530960083008, 0.051497089557930045, 1696621399234554703, 
0.01964128017425537, -0.29922133684158325, 0.09653633379115228, 1696621399245907391, 
-0.04709219932556152, -0.3150978684425354, 0.18088314143165937, 1696621399254573325, 
0.04350006580352783, -0.08108508586883545, 0.1905666756188471, 1696621399264600109, 
-0.12822401523590088, -0.17996299266815186, 0.16961468626497814, 1696621399277338406, 
-0.11788809299468994, 0.03150755167007446, 0.34283556866672593, 1696621399284507457, 
0.013304710388183594, -0.20117825269699097, 0.2775085738674367, 1696621399294709398, 
0.1669914722442627, -0.3199692964553833, 0.3231754933072112, 1696621399304627969, 
0.32629871368408203, -0.3448338508605957, 0.35591519405419125, 1696621399314504150, 
0.37100672721862793, -0.4570399522781372, 0.3195214683426493, 1696621399326188181, 
0.24199461936950684, -0.2102959156036377, 0.4779328991496178, 1696621399334432263, 
-0.025005698204040527, -0.20011001825332642, 0.41714486512489996, 1696621399344450449, 
-0.01568913459777832, 0.000517725944519043, 0.3608746456923206, 1696621399356914489, 
0.06532704830169678, -0.0021973848342895508, 0.6433755053492582, 1696621399364416473, 
0.42843466997146606, -0.020150840282440186, 0.5035205559822132, 1696621399374402616, 
0.8727403879165649, 0.11408370733261108, 0.49965694292595003, 1696621399384349741, 
0.6841017603874207, -0.1285197138786316, 0.4642565621711099, 1696621399394356622, 
0.4487679600715637, -0.2784445285797119, 0.36798940989504225, 1696621399406591717, 
0.735893964767456, -0.15510571002960205, 0.5866725524311874, 1696621399414280593, 
0.5786566734313965, -0.09726399183273315, 0.43304121067710144, 1696621399424291916, 
0.44567418098449707, 0.15352016687393188, 0.3363270838605644, 1696621399436780036, 
0.578050971031189, 0.2885412573814392, 0.5539257920161236, 1696621399444295682, 
0.631170392036438, 0.4128434658050537, 0.40630594305299805, 1696621399454399222, 
0.7125115394592285, 0.4341883659362793, 0.4096490226125613, 1696621399464250582, 
0.7648136615753174, 0.36473411321640015, 0.40845508840726963, 1696621399474195199, 
0.8133459091186523, 0.3374614119529724, 0.3401927730606133, 1696621399486432230, 
0.8607486486434937, 0.26154303550720215, 0.5546156063130867, 1696621399494169187, 
0.7874094247817993, 0.1553264856338501, 0.4408603386789819, 1696621399504148152, 
0.5595957040786743, 0.09623110294342041, 0.44478901262686943, 1696621399514164133, 
0.45426809787750244, 0.02473348379135132, 0.45678554207741895, 1696621399524171049, 
0.3679850101470947, 0.0008715987205505371, 0.47320960590761685, 1696621399534336756, 
0.1598389744758606, 0.021103858947753906, 0.5346479648378918, 1696621399544118112, 
0.13096755743026733, 0.07090151309967041, 0.583162195676267, 1696621399554060078, 
0.10471868515014648, -0.01566004753112793, 0.5261097019090156, 1696621399566210451, 
0.0551416277885437, 0.007652103900909424, 0.8917218045689196, 1696621399574013242, 
-0.11985093355178833, -0.07746219635009766, 0.823322856946475, 1696621399583031939, 
-0.08246344327926636, 0.11501407623291016, 0.7023391916860875, 1696621399594066710, 
-0.11159729957580566, 0.21286433935165405, 0.8003408887993861, 1696621399604013218, 
-0.11886662244796753, 0.21581357717514038, 0.8013006448559784, 1696621399614251619, 
-0.24032270908355713, 0.4491095542907715, 0.869629294176999, 1696621399624001047, 
-0.20292609930038452, 0.5716567039489746, 0.8807147749977842, 1696621399633961111, 
-0.04086226224899292, 0.4165947437286377, 0.7514901343985468, 1696621399645957976, 
-0.05637413263320923, 0.3804299831390381, 1.1638075217068917, 1696621399653914842, 
-0.0872456431388855, 0.4327952265739441, 0.9466845509610838, 1696621399664085019, 
0.17977619171142578, 0.5292072296142578, 1.0301517475276676, 1696621399673930358, 
0.02357417345046997, 0.3762776255607605, 1.0791638600095563, 1696621399683873885, 
1.4460182189941406, 0.5476521849632263, 1.0904701952147655, 1696621399693987819, 
2.3743200302124023, 1.752460241317749, 1.0663043957032254, 1696621399703832907, 
1.0922304391860962, -0.24634963274002075, 0.9499294348697862, 1696621399713889034, 
0.34175872802734375, -1.739330768585205, 0.7090285258103862, 1696621399726387860, 
-0.89567631483078, -0.065513014793396, 1.132171140214884, 1696621399733793905, 
-0.5813864469528198, -1.0996160507202148, 0.8438500408225145, 1696621399743844732, 
0.718397319316864, -0.43217694759368896, 0.8657097556556308, 1696621399753802117, 
0.3727230429649353, 0.009746015071868896, 0.8272709457743984, 1696621399763794018, 
0.31423819065093994, 0.8475263714790344, 0.7764468785010508, 1696621399773977611, 
-0.661719799041748, 0.8693016171455383, 0.7582169696442866, 1696621399783941302, 
-1.1830809116363525, 0.2522779107093811, 0.7115005872588074, 1696621399793926437, 
0.13653838634490967, 0.9015753269195557, 0.5484129266374609, 1696621399805855897, 
-0.6820279359817505, 0.10922563076019287, 0.7578220131454498, 1696621399813677481, 
-1.2720367908477783, 0.03737986087799072, 0.5290652428984757, 1696621399823664984, 
-0.37030333280563354, 0.20914173126220703, 0.4647896787092511, 1696621399833627772, 
-0.534194827079773, -0.1451627016067505, 0.4047127118911963, 1696621399843572482, 
-0.6540317535400391, 0.10676848888397217, 0.3277236111007064, 1696621399853776640, 
-0.7522388696670532, 0.13861030340194702, 0.3007389647741384, 1696621399862618694, 
-0.5041401982307434, 0.04286086559295654, 0.20503899109812845, 1696621399872755834, 
-0.28981202840805054, -0.13011431694030762, 0.11846939213111862, 1696621399885849219, 
-0.5627596378326416, -0.1260833740234375, 0.1441093707587162, 1696621399893548788, 
-0.6288813352584839, -0.1429969072341919, 0.07734779140964838, 1696621399903636265, 
-0.09539544582366943, -0.34116190671920776, 0.04525090766373634, 1696621399913508112, 
0.17830002307891846, -0.21462970972061157, 0.0029051596455022793, 1696621399923452134, 
0.0685001015663147, -0.30449146032333374, -0.04214552278800806, 1696621399933944694, 
0.29800164699554443, -0.6536129713058472, -0.09087546164851056, 1696621399943470676, 
0.44257187843322754, -0.4991903305053711, -0.11965624922115607, 1696621399953428019, 
0.12106019258499146, -0.44262391328811646, -0.10663785473849965, 1696621399965888876, 
0.18221211433410645, -0.4672561287879944, -0.17341489607371524, 1696621399973412881, 
0.39715707302093506, -0.2743237614631653, -0.12507710598816088, 1696621399983415682, 
0.5493140816688538, -0.4007219076156616, -0.12190242851943987, 1696621399993410126, 
0.9872636198997498, -0.3861360549926758, -0.13411639298088157, 1696621400003358989, 
0.8600286245346069, -0.44638973474502563, -0.14298861743259364, 1696621400014285133, 
0.10199195146560669, -0.5325280427932739, -0.16897875563274894, 1696621400023340278, 
-0.13054412603378296, -0.33239173889160156, -0.13053774408937927, 1696621400033314280, 
0.14288949966430664, -0.2090703248977661, -0.08265194631135685, 1696621400046426055, 
0.20817023515701294, -0.19967854022979736, -0.12451329953085186, 1696621400053295232, 
0.24908405542373657, -0.14358055591583252, -0.07305952700512905, 1696621400063326346, 
0.30073702335357666, -0.15517652034759521, -0.06429363944259069, 1696621400073320080, 
0.20840120315551758, -0.0843651294708252, -0.04623773109607427, 1696621400083306098, 
0.18638688325881958, 0.06633728742599487, -0.02083224875373184, 1696621400094241168, 
0.5077717304229736, 0.170987069606781, -0.0004988894549398192, 1696621400103190023, 
0.8140860199928284, -0.00955045223236084, 0.011078439203802814, 1696621400113379199, 
0.6970981359481812, -0.015546977519989014, 0.008831521757010992, 1696621400126250878, 
0.1506422758102417, -0.15605300664901733, 0.03362619227866281, 1696621400133141241, 
0.12534880638122559, -0.40332692861557007, 0.05283122449761077, 1696621400143395297, 
0.1568840742111206, -0.23804277181625366, 0.09604102733260586, 1696621400153202569, 
1.0369539260864258, 0.232158362865448, 0.19845870206722332, 1696621400163242571, 
2.342179298400879, -0.7953428030014038, 0.3456477127437711, 1696621400174398342, 
2.5173392295837402, 1.1763837337493896, 0.5793175940832358, 1696621400183096363, 
1.3864216804504395, 3.994884729385376, 0.5102516528509583, 1696621400193152977, 
0.8043596744537354, 2.604203939437866, 0.40957115766260377, 1696621400205660416, 
1.1052031517028809, -0.03430628776550293, 0.9074611039006527, 1696621400212037748, 
-0.1467456817626953, -1.636916160583496, 0.6340487296582209, 1696621400223312785, 
-0.36046427488327026, 1.1963045597076416, 0.836620916316323, 1696621400233060690, 
0.17217135429382324, 1.790358304977417, 0.830570978519376, 1696621400242996002, 
-0.13246721029281616, 0.5628858208656311, 0.7538722088071379, 1696621400254072467, 
0.3565160632133484, -1.0636928081512451, 1.0018170988638144, 1696621400262967698, 
-0.3107718825340271, -0.3293236494064331, 0.956770805263669, 1696621400272929041, 
0.7578842639923096, 1.5439070463180542, 1.028422983818317, 1696621400292045560, 
1.0419474840164185, -0.027176856994628906, 0.8974675749413098, 1696621400302868516, 
1.6356816291809082, -0.13587689399719238, 0.9888049279385541, 1696621400312888427, 
-1.7173863649368286, 0.45760899782180786, 1.0319712289619654, 1696621400322834132, 
-1.170937180519104, -0.9039301872253418, 0.954363937191608, 1696621400334085250, 
-1.6962380409240723, -0.642483651638031, 1.2279739433387387, 1696621400342881475, 
-0.7052001953125, 1.2968231439590454, 1.0172694727045666, 1696621400352852220, 
-1.5683485269546509, 3.119335651397705, 0.7338813764820079, 1696621400365848992, 
-1.3286895751953125, 0.9718002080917358, 1.3480534533080868, 1696621400372748649, 
0.059115827083587646, -1.3098617792129517, 0.9458110471314747, 1696621400382738442, 
-0.5134623646736145, -1.8182724714279175, 0.9812554014021754, 1696621400392778997, 
0.6453556418418884, 1.1071029901504517, 0.9954138380833782, 1696621400402737384, 
-0.10737782716751099, 1.1163861751556396, 0.9419951971031064, 1696621400413054461, 
0.5433621406555176, -0.6445416808128357, 1.006553254094582, 1696621400422678899, 
0.10096162557601929, -0.7765235900878906, 0.9917481141446003, 1696621400432678016, 
-0.5854954719543457, -0.17890125513076782, 0.8199498165000361, 1696621400445126414, 
0.028696179389953613, 1.6657086610794067, 1.3607726671235487, 1696621400452657417, 
-0.21897125244140625, 1.1152193546295166, 1.0135985166721002, 1696621400462651189, 
0.8808935284614563, -0.37384122610092163, 1.1417210808630744, 1696621400471656133, 
0.5819113850593567, -0.10342884063720703, 1.0407700563324707, 1696621400481611609, 
0.09823966026306152, 0.8161972761154175, 0.7900448818546544, 1696621400494518449, 
-0.15544408559799194, 0.8483722805976868, 1.2353804306606337, 1696621400502630422, 
-0.49651992321014404, 0.2771190404891968, 0.9634521460740335, 1696621400512862179, 
-0.5072677135467529, -0.526498556137085, 0.983059309599485, 1696621400523033947, 
0.3226975202560425, 0.02371680736541748, 1.0609410797255703, 1696621400532553816, 
1.058927059173584, 0.779508113861084, 0.9901180560960584, 1696621400542595623, 
-0.4545784592628479, -0.14016664028167725, 0.9664374574654194, 1696621400552844396, 
-0.38723814487457275, 0.055313825607299805, 1.0052508984983013, 1696621400562742880, 
-0.47836750745773315, 0.10665512084960938, 0.8670744958227395, 1696621400574312847, 
0.10366249084472656, 0.7928992509841919, 1.2315670854559644, 1696621400582516567, 
0.1838306188583374, 0.2841341495513916, 1.0071477873265766, 1696621400592492665, 
0.32874834537506104, 0.10722649097442627, 0.994277679034639, 1696621400602560681, 
-0.20248109102249146, 0.7791215181350708, 1.0147308168464169, 1696621400612468706, 
-0.6418972015380859, 0.6322212815284729, 1.0030505157872676, 1696621400622417472, 
-0.3638770580291748, 0.3719254732131958, 1.0025318046366238, 1696621400632361570, 
-0.02414458990097046, -0.1249118447303772, 0.9967049432202936, 1696621400642341317, 
0.3607582449913025, -0.3656277656555176, 0.847250834172165, 1696621400654124702, 
0.4624841809272766, 0.6541221141815186, 1.246691862690153, 1696621400662314763, 
0.04561197757720947, 0.6332515478134155, 1.0242298846107247, 1696621400672287210, 
-0.33190566301345825, 0.0179595947265625, 1.0244914124281006, 1696621400682333584, 
-0.5803945064544678, -0.26288026571273804, 1.050869074981018, 1696621400692290263, 
-0.27296561002731323, -0.14241266250610352, 1.0565429577585814, 1696621400702297614, 
0.6592622995376587, 0.715471088886261, 1.070190415753544, 1696621400712241312, 
0.7893049120903015, 0.8037142753601074, 1.0421460585457458, 1696621400722219302, 
-0.014333248138427734, 0.10120022296905518, 0.7581564802554781, 1696621400735423465, 
-0.26225465536117554, 0.15633708238601685, 1.4727663207908843, 1696621400742210808, 
-0.31131070852279663, 0.2977931499481201, 1.0110065287455825, 1696621400752265063, 
-0.3884703516960144, -0.043172359466552734, 1.0377328645602664, 1696621400762223597, 
0.30817466974258423, 0.4110985994338989, 1.042862124959807, 1696621400772205079, 
0.36000871658325195, 0.31763023138046265, 1.0196337078635693, 1696621400782256980, 
0.1081361174583435, 0.11179828643798828, 1.0178214059562873, 1696621400792186111, 
-0.24743622541427612, 0.4297720789909363, 1.0131268460142335, 1696621400802145824, 
-0.3835505247116089, 0.01564013957977295, 0.8005064433793724, 1696621400814791924, 
0.09373092651367188, 0.12786245346069336, 1.4145036335977283, 1696621400822007748, 
0.09690296649932861, 0.43472719192504883, 0.9887964286398402, 1696621400832277520, 
0.04940074682235718, 0.2686386704444885, 1.0171392488551352, 1696621400842142998, 
-0.01541125774383545, 0.6457104682922363, 1.0141918713221971, 1696621400851984274, 
-0.5635027289390564, 0.22308212518692017, 0.9776159820140413, 1696621400862149307, 
-0.5037481188774109, -0.06833171844482422, 1.1187159055246656, 1696621400871087996, 
-0.1717241406440735, 0.40531694889068604, 0.9229845958022287, 1696621400881927689, 
0.14543873071670532, -0.011464476585388184, 0.8915332870879511, 1696621400893037520, 
0.5428195595741272, 0.1744476556777954, 1.114528036842757, 1696621400901890199, 
-0.05516630411148071, 0.5164231657981873, 0.9475128275874772, 1696621400912175314, 
-0.3867494463920593, 0.037764668464660645, 0.9979222390174356, 1696621400921911110, 
-0.12351715564727783, 0.17776036262512207, 0.9945676214000861, 1696621400931864054, 
-0.3979688286781311, 0.11863952875137329, 0.9672787787553998, 1696621400942246755, 
0.044016361236572266, -0.2216389775276184, 1.0596940507415966, 1696621400951852268, 
0.8577380180358887, 0.6014764904975891, 1.012491834572789, 1696621400961887627, 
0.3554973602294922, 0.5498453974723816, 0.7971951548258127, 1696621400974358063, 
0.023796141147613525, 0.4373653531074524, 1.3355589400002157, 1696621400981782529, 
-0.20319992303848267, 0.5795481204986572, 0.9941675406045317, 1696621400991777421, 
-0.42266035079956055, -0.3307243585586548, 0.9855438037144214, 1696621401001832574, 
-0.11339676380157471, 0.4030039310455322, 1.001598519033559, 1696621401011791966, 
0.1334741711616516, 0.8145272135734558, 0.9482044045881147, 1696621401022223910, 
0.4351462125778198, 0.06412231922149658, 1.0397211409837686, 1696621401031752643, 
0.17682063579559326, 0.11999666690826416, 1.0150006813057815, 1696621401041716818, 
-0.4976238012313843, 0.13009637594223022, 0.8109596705573807, 1696621401054272277, 
-0.47635507583618164, 0.1506565809249878, 1.6025185583888537, 1696621401060687961, 
-0.03035295009613037, 0.7547061443328857, 0.9306280742948264, 1696621401071759229, 
-0.034745633602142334, -0.07065445184707642, 1.0307997797405273, 1696621401081646140, 
0.058714330196380615, 0.08699643611907959, 1.0340041289031305, 1696621401091615195, 
0.10402745008468628, 0.3467252254486084, 1.0874225514214924, 1696621401101129453, 
-0.11964946985244751, 0.09149020910263062, 0.9869375447516576, 1696621401111569197, 
-0.36467164754867554, 0.4965120553970337, 1.0422795877740954, 1696621401121545797, 
-0.3945799469947815, 0.2564237713813782, 0.7783665275623919, 1696621401134790227, 
-0.02760690450668335, -0.0431671142578125, 1.5249104718422206, 1696621401141518310, 
0.5533259510993958, 0.6855893135070801, 0.9949846556915068, 1696621401151717451, 
0.47454601526260376, 0.34432923793792725, 0.9989321570471865, 1696621401161569833, 
0.08460837602615356, 0.015201866626739502, 0.9839908138808502, 1696621401171457531, 
-0.11188220977783203, 0.2140965461730957, 0.9256588969517017, 1696621401181928271, 
-0.4332638382911682, -0.16050249338150024, 1.0116816707715706, 1696621401191490521, 
-0.07604366540908813, 0.3784559369087219, 0.9740698942924768, 1696621401201438258, 
0.17100369930267334, 0.6044034957885742, 0.7603110171346802, 1696621401214074264, 
0.16728651523590088, -0.11763417720794678, 1.3133150850388278, 1696621401221394503, 
0.06999915838241577, 0.14161843061447144, 0.9567965383170303, 1696621401231618629, 
-0.34446555376052856, 0.3359033465385437, 1.0059826450607603, 1696621401241395723, 
-0.21002352237701416, 0.4388434886932373, 0.9974671081015818, 1696621401251342169, 
0.05398029088973999, 0.738500714302063, 0.8955839877279805, 1696621401262471992, 
0.139356791973114, 0.21496576070785522, 1.1288987585549075, 1696621401271321462, 
0.30785632133483887, 0.20422899723052979, 1.0240132296928428, 1696621401281295797, 
-0.01621466875076294, 0.4928562045097351, 0.8028029128988937, 1696621401294114299, 
-0.28524500131607056, -0.12230336666107178, 1.4556859846270251, 1696621401301251145, 
-0.5330417156219482, 0.057700932025909424, 1.0553320795970784, 1696621401311264844, 
-0.40894198417663574, 0.4384346604347229, 1.0690371844028963, 1696621401321189735, 
0.09772133827209473, 0.1116790771484375, 1.0609820182325764, 1696621401331240599, 
0.7912946343421936, 0.6097967624664307, 0.9942091726857811, 1696621401341933735, 
0.4023774266242981, 0.08130806684494019, 1.1142673773541636, 1696621401351284856, 
0.05801111459732056, 0.054310739040374756, 1.0483317239065038, 1696621401361144021, 
-0.3138929009437561, 0.5788568258285522, 0.7935672604985681, 1696621401374105868, 
-0.5308439135551453, 0.262143611907959, 1.4553340773344985, 1696621401381116291, 
-0.08213233947753906, 0.38785672187805176, 1.015895852145804, 1696621401391164098, 
0.3331702947616577, 0.2858780026435852, 1.004043285183702, 1696621401401112721, 
0.29577189683914185, -0.16684013605117798, 0.9883302049343113, 1696621401411101289, 
0.170509934425354, 0.6381205320358276, 0.9151929704340709, 1696621401421854489, 
-0.16233795881271362, 0.462466835975647, 1.0568864599131986, 1696621401431056192, 
-0.4455280900001526, -0.1947968602180481, 0.9779246844945002, 1696621401441014917, 
-0.07159423828125, 0.255138099193573, 0.7829372930806058, 1696621401453438392, 
-0.07846349477767944, 0.010873138904571533, 1.2712252067445176, 1696621401461114913, 
0.1946479082107544, 0.030184686183929443, 1.109182191437691, 1696621401470016027, 
0.2581446170806885, 0.5575999617576599, 0.9018535807934835, 1696621401480982306, 
-0.34599584341049194, -0.20843124389648438, 0.9948515914243032, 1696621401490986255, 
-0.1329776644706726, 0.24980014562606812, 0.93211173535907, 1696621401501801086, 
-0.1784043312072754, 0.7738377451896667, 1.097381556095171, 1696621401510971843, 
-0.10046643018722534, 0.18005120754241943, 1.0226350839224425, 1696621401520958231, 
-0.07643115520477295, -0.0640135407447815, 1.032849981957253, 1696621401540863606, 
0.13028579950332642, -0.10874193906784058, 1.0404078735130595, 1696621401550862825, 
-0.14610427618026733, 0.9221218228340149, 0.9866153263855294, 1696621401561342807, 
-0.18265682458877563, 0.09462440013885498, 1.1789875174602964, 1696621401570028279, 
0.44201815128326416, -0.09436845779418945, 0.8149243004661286, 1696621401582565971, 
0.28116101026535034, 0.34360265731811523, 1.2164362490516234, 1696621401590800359, 
-0.15400761365890503, 0.12902915477752686, 0.9920391755132719, 1696621401600912355, 
0.4341638684272766, 0.9465201497077942, 0.7816486462346708, 1696621401613827874, 
-0.15286874771118164, 0.27871978282928467, 1.4580860533911184, 1696621401620708150, 
-0.11373287439346313, -0.39874815940856934, 1.0081252180958222, 1696621401630835704, 
0.10763168334960938, 0.42936062812805176, 1.0260174230208845, 1696621401640781531, 
0.026130855083465576, 0.20074784755706787, 1.011565565617511, 1696621401650752033, 
0.07906728982925415, 0.3120521306991577, 1.0052120699269609, 1696621401660847921, 
0.08760380744934082, 0.5139145851135254, 1.1340270314107064, 1696621401669708229, 
-0.3395627737045288, -0.211617112159729, 0.9022208010874108, 1696621401680787028, 
-0.2859354019165039, 0.4975510239601135, 1.0124279258552618, 1696621401690663724, 
-0.12182062864303589, 0.700233519077301, 0.9783358418343291, 1696621401700711186, 
-0.27119606733322144, 0.04622995853424072, 0.9931373649848106, 1696621401710615541, 
0.1333678960800171, 0.21603727340698242, 0.9807198161708038, 1696621401720693655, 
0.10652542114257812, -0.2679089307785034, 0.9641019869957286, 1696621401730922107, 
-0.3214035630226135, 0.09220504760742188, 0.8613175125113605, 1696621401742514718, 
0.06150472164154053, 0.7750626802444458, 1.2340749448360386, 1696621401750548965, 
-0.12387806177139282, 0.031959474086761475, 0.9740843436363306, 1696621401760651611, 
-0.32311034202575684, -0.12445801496505737, 1.0046191072888295, 1696621401770569395, 
-0.18361729383468628, 0.3394628167152405, 1.0010122119705591, 1696621401780543031, 
-0.03685104846954346, 0.3674743175506592, 1.0078927616446807, 1696621401790480159, 
0.31318795680999756, 0.7307561635971069, 1.0017336967334023, 1696621401800505903, 
0.10785144567489624, 0.24869149923324585, 1.0073500000892455, 1696621401810436578, 
0.05526977777481079, -0.04624265432357788, 0.879121581462098, 1696621401821873858, 
0.036262691020965576, 0.5256752371788025, 1.1785793311289634, 1696621401830440703, 
-0.17580968141555786, 0.3480464220046997, 0.9937085450514654, 1696621401840669656, 
-0.142566978931427, -0.06456458568572998, 1.0517883059203836, 1696621401850515902, 
0.21077114343643188, 0.3629204034805298, 1.0673213196703837, 1696621401860307418, 
0.16498035192489624, 0.15159529447555542, 1.040551508270449, 1696621401870365962, 
0.3880903124809265, 0.5084947347640991, 1.0348090564202417, 1696621401880336969, 
-0.13994437456130981, 0.525698721408844, 1.0168777502553679, 1696621401890312817, 
-0.3846955895423889, -0.12309539318084717, 0.831429517169441, 1696621401902629244, 
-0.185288667678833, 0.4174610376358032, 1.347525847470965, 1696621401910277421, 
0.07314461469650269, 0.201341450214386, 1.0063227956006662, 1696621401920590149, 
0.17641419172286987, -0.2156531810760498, 1.075953081845395, 1696621401930323128, 
0.1097790002822876, 0.21838855743408203, 1.0461305283739086, 1696621401940257737, 
-0.17700600624084473, 0.038144588470458984, 1.0241157649903785, 1696621401950328863, 
-0.20827531814575195, 0.448200523853302, 1.0403335903110569, 1696621401960150017, 
-0.14094388484954834, 0.7877797484397888, 1.0034237027044055, 1696621401970173862, 
0.4248560070991516, 0.24825513362884521, 1.0006265206513054, 1696621401990171955, 
0.4553174376487732, 0.2863166928291321, 0.9721145939692247, 1696621402000235129, 
0.06635642051696777, 0.12930428981781006, 0.9734310888302319, 1696621402010252873, 
-0.2995188236236572, 0.5400981903076172, 0.9791185861045912, 1696621402020135829, 
-0.4947156310081482, -0.01982736587524414, 0.9260813461390516, 1696621402030644869, 
-0.2078816294670105, -0.23961257934570312, 1.0310999674701915, 1696621402040165777, 
0.3843699097633362, 0.46861398220062256, 0.9764327502535476, 1696621402050183990, 
0.17944633960723877, 0.42406272888183594, 0.899746026779674, 1696621402061081154, 
0.17944633960723877, 0.42406272888183594, 1.079188019140553, 1696621402070106708, 
-0.501192569732666, 0.42186105251312256, 0.9257000653778255, 1696621402080579908, 
-0.22419482469558716, 0.6841291189193726, 0.9800893370978524, 1696621402090580765, 
0.10306054353713989, 0.2515951991081238, 1.0236879737529647, 1696621402100190462, 
0.6159090995788574, -0.2869022488594055, 0.9913968350686206, 1696621402110147729, 
0.0831863284111023, 0.2874469757080078, 0.9798285211290155, 1696621402120434721, 
-0.716046929359436, 0.37480008602142334, 1.0653087103915935, 1696621402129986318, 
0.029010236263275146, 0.39253705739974976, 1.041474296532415, 1696621402149986536, 
0.6159288287162781, 0.3323366045951843, 1.0274460788546231, 1696621402160301507, 
0.6159288287162781, 0.3323366045951843, 1.1198810881517651, 1696621402169928725, 
0.3165739178657532, 0.5260130763053894, 1.066561169704175, 1696621402179888705, 
-0.25709372758865356, 0.40696626901626587, 1.0358796413539573, 1696621402189952651, 
-0.5358241200447083, 0.4834652543067932, 1.0499928638635425, 1696621402199867198, 
-0.46459829807281494, -0.10886859893798828, 1.0491768825163252, 1696621402209778210, 
0.20666921138763428, 0.09391558170318604, 0.8368457852904952, 1696621402222317276, 
0.9258423447608948, 0.676617443561554, 1.4061651139012012, 1696621402229756494, 
0.7943626642227173, -0.07559150457382202, 1.104456988217929, 1696621402238921673, 
0.08899194002151489, 0.11745578050613403, 1.0033807295093977, 1696621402248794643, 
-0.3577679395675659, 0.1469026803970337, 0.8916213370530908, 1696621402259775931, 
-0.5584400296211243, 0.07214754819869995, 1.0284200640350274, 1696621402269227210, 
-0.19584542512893677, 0.47592633962631226, 0.909680653395277, 1696621402279934102, 
0.21401768922805786, -0.006300032138824463, 1.1033020669490679, 1696621402288704389, 
0.21469014883041382, -0.1805323362350464, 0.782397035491009, 1696621402301086560, 
-0.1257053017616272, 0.405692994594574, 1.1427247085071088, 1696621402309660941, 
-0.33992254734039307, 0.41526955366134644, 0.9584043328827503, 1696621402319906750, 
-0.3338974118232727, 0.5277618169784546, 0.9963507234194922, 1696621402329795234, 
-0.16604501008987427, 0.250787615776062, 0.9938037909914929, 1696621402339688719, 
0.09607940912246704, -0.03732955455780029, 0.9169200841600628, 1696621402350395848, 
0.08485770225524902, 0.4311780333518982, 1.0836972811649184, 1696621402359555728, 
-0.166972815990448, 0.31357651948928833, 0.9994206630187679, 1696621402369542289, 
-0.1873876452445984, -0.14428842067718506, 0.7840582778220304, 1696621402382334573, 
-0.19522380828857422, 0.31948143243789673, 1.4057162098820881, 1696621402389520573, 
0.29077160358428955, 0.38126426935195923, 1.015122946213398, 1696621402399460108, 
0.3687911033630371, 0.3035236597061157, 1.008161208160665, 1696621402409542945, 
0.25581175088882446, 0.37202101945877075, 1.0360588959950416, 1696621402419430472, 
0.0003535151481628418, -0.09537947177886963, 0.980852084240197, 1696621402429885212, 
-0.3186466693878174, 0.26567232608795166, 1.0717463751831133, 1696621402439453354, 
0.1062440276145935, 0.6582127809524536, 1.0177548493809458, 1696621402449441453, 
-0.15681147575378418, 0.10670989751815796, 0.785139679233474, 1696621402462313219, 
0.351671040058136, 0.09874409437179565, 1.4244963088585088, 1696621402469445615, 
-0.10688537359237671, 0.03355884552001953, 1.0257701024207977, 1696621402479396256, 
-0.013841211795806885, 0.04028725624084473, 1.0335888131755395, 1696621402489379241, 
-0.29198122024536133, 0.767784595489502, 1.0461265687805816, 1696621402499268991, 
-0.5986325144767761, 0.10493141412734985, 0.9608812652694824, 1696621402509935848, 
0.17450016736984253, -0.06499743461608887, 1.101864454510643, 1696621402519294166, 
0.25491535663604736, 0.3353074789047241, 1.017086198076789, 1696621402529493748, 
0.5504927635192871, 0.022555291652679443, 0.7901007977004822, 1696621402542701473, 
-0.048090577125549316, 0.3121560215950012, 1.599051084073653, 1696621402549254079, 
-0.4365691542625427, 0.18288856744766235, 1.0052031178287626, 1696621402559536445, 
-0.5215566158294678, -0.1778188943862915, 1.057688574669225, 1696621402569272092, 
-0.0064345598220825195, 0.7921456694602966, 1.0402999538942033, 1696621402579139298, 
0.1926783323287964, 0.35151952505111694, 0.9033822411548315, 1696621402590265970, 
0.6124755144119263, 0.2036581039428711, 1.116046959304382, 1696621402599166484, 
0.07607442140579224, 0.1978623867034912, 0.9837124642651781, 1696621402609166339, 
-0.6575338244438171, -0.3849727511405945, 0.7613817895841105, 1696621402621944942, 
-0.2077559232711792, 0.6394793391227722, 1.3566242674105364, 1696621402629128901, 
-0.33246660232543945, 0.8302888870239258, 0.9598570252361025, 1696621402639120241, 
0.184032142162323, -0.33627569675445557, 0.9562926490599877, 1696621402649145300, 
0.5671290755271912, -0.19001704454421997, 1.0975642484691968, 1696621402658052876, 
-0.006885230541229248, 0.09115022420883179, 0.7995695973241392, 1696621402670353754, 
-0.2581515908241272, 0.40794628858566284, 1.2977376400000145, 1696621402678019281, 
-0.16727697849273682, 0.8088874220848083, 0.8932407559866982, 1696621402689125506, 
-0.26932233572006226, -0.02101576328277588, 0.7495441789908425, 1696621402702253525, 
-0.09999030828475952, -0.02040189504623413, 1.489075086591835, 1696621402709012871, 
0.38199281692504883, 0.6359556913375854, 1.1364420667365072, 1696621402718027630, 
0.4788894057273865, 0.07613801956176758, 1.0301910708283823, 1696621402728017792, 
0.25915688276290894, 0.3825201988220215, 0.9456729589081972, 1696621402738979587, 
-0.14545410871505737, 0.07802337408065796, 0.9047541846566431, 1696621402750308549, 
-0.6000112295150757, -0.21095192432403564, 1.2007566304804778, 1696621402758889543, 
-0.007239222526550293, 0.6622099876403809, 1.0365136494121994, 1696621402768895284, 
0.24399638175964355, 0.36305874586105347, 0.8108724406544352, 1696621402781482862, 
0.7324463129043579, -0.06282943487167358, 1.3473488965465876, 1696621402788986098, 
0.1016385555267334, 0.12006568908691406, 1.002844775255063, 1696621402798897555, 
-0.5277434587478638, -0.0907365083694458, 0.9788208671703995, 1696621402808973004, 
-0.43560248613357544, 0.8370269536972046, 1.0012811568435789, 1696621402818828423, 
-0.11009567975997925, 0.6040319800376892, 0.9564063831854663, 1696621402829062208, 
0.17243534326553345, -0.3150327801704407, 1.001179989957778, 1696621402838896757, 
0.17735058069229126, -0.1273455023765564, 1.0163488497566822, 1696621402848747083, 
-0.3549419641494751, 0.6306919455528259, 0.7850086740401652, 1696621402861492336, 
-0.3549419641494751, 0.6306919455528259, 1.5950564607294966, 1696621402867751579, 
-0.25674009323120117, 0.873234748840332, 0.8976442107543181, 1696621402878744374, 
-0.3800622820854187, -0.11846917867660522, 0.9713506837160433, 1696621402888728726, 
0.4313696026802063, -0.18258631229400635, 0.9924854980084724, 1696621402898686473, 
0.45075714588165283, 0.3328421115875244, 0.890240920308386, 1696621402909914443, 
-0.05549496412277222, 0.06477665901184082, 1.1538533441210999, 1696621402918613396, 
-0.3638156056404114, 0.15534430742263794, 1.0082874786558527, 1696621402928647116, 
-0.6848040819168091, 0.18104326725006104, 0.804277692533452, 1696621402941180965, 
-0.09880149364471436, -0.00744551420211792, 1.3665319783567766, 1696621402948568297, 
0.621308445930481, 0.6651039123535156, 1.0016527120401792, 1696621402958580399, 
0.8906164169311523, 0.20232492685317993, 0.988842148132046, 1696621402968555485, 
0.20386463403701782, -0.08505010604858398, 0.9871966561206731, 1696621402978531093, 
-0.2866550087928772, 0.41202008724212646, 0.836436264993042, 1696621402990334645, 
-0.5468032956123352, 0.40071356296539307, 1.2071660073073505, 1696621402998531728, 
-0.5327965021133423, 0.2070392370223999, 0.9946096067174407, 1696621403008607289, 
0.2728955149650574, 0.06314408779144287, 0.8190834108937193, 1696621403020945480, 
0.5330606698989868, -0.3582913875579834, 1.3736710928154132, 1696621403028437981, 
0.7429694533348083, 0.44878679513931274, 1.028700948710652, 1696621403038473068, 
-0.06260925531387329, 0.7016779780387878, 1.0163229350646092, 1696621403048422060, 
-0.3420714735984802, 0.3133096694946289, 0.9972892761380059, 1696621403058450267, 
-0.3248595595359802, 0.4981960654258728, 0.9351070972930138, 1696621403069030786, 
-0.3454930782318115, -0.11324280500411987, 1.0530239244839048, 1696621403078375896, 
0.36590439081192017, -0.02422046661376953, 0.9894854166402092, 1696621403088402096, 
0.525745153427124, 0.4849914312362671, 0.9893459213797157, 1696621403098402434, 
-0.3105618953704834, -0.031117379665374756, 0.9965736415223481, 1696621403108383708, 
-0.7141340970993042, 0.20017653703689575, 1.0034800823720078, 1696621403118403038, 
-0.48842763900756836, 0.39922773838043213, 1.0213658922360072, 1696621403128287581, 
-0.29664528369903564, -0.23896431922912598, 1.033503720017548, 1696621403138279317, 
0.5022582411766052, 0.5359748005867004, 0.8539346477280094, 1696621403150484314, 
0.3633002042770386, 0.02577340602874756, 1.3247505692037167, 1696621403158265396, 
0.19231373071670532, 0.01387089490890503, 1.030896532325312, 1696621403168275888, 
-0.36005401611328125, 0.8529701828956604, 1.0277099603207023, 1696621403178285795, 
-0.7157350778579712, 0.2873276472091675, 1.0334884688576969, 1696621403188244811, 
-0.4237878918647766, -0.06574994325637817, 1.0337032872194734, 1696621403198279046, 
-0.24878644943237305, 0.15248233079910278, 1.0394897660199802, 1696621403208154051, 
0.40327322483062744, -0.11447256803512573, 0.9889162339732198, 1696621403218442466, 
1.079978108406067, 0.6195393800735474, 0.8710498523493391, 1696621403229915743, 
-0.0006203651428222656, 0.4050808548927307, 1.17802619684304, 1696621403238172357, 
-0.4608580470085144, -0.21898382902145386, 0.9619373943413114, 1696621403248386545, 
-0.4504554867744446, 0.1596164107322693, 1.013183707429638, 1696621403258168596, 
-0.22660750150680542, -0.011975765228271484, 0.9904914963064194, 1696621403268179717, 
0.2498590350151062, 0.2173812985420227, 1.0008189759681902, 1696621403278132734, 
0.5552498698234558, 0.7020792961120605, 0.9863006616730629, 1696621403288089576, 
0.18531197309494019, -0.007668435573577881, 1.099752099629872, 1696621403297023364, 
-0.3106996417045593, 0.33859968185424805, 0.7307745290684778, 1696621403310642233, 
-0.348996639251709, 0.660368800163269, 1.348796768503001, 1696621403318004754, 
-0.4319915175437927, -0.06996053457260132, 1.0004161822995783, 1696621403328012505, 
0.39573484659194946, 0.25886666774749756, 1.1153015525399896, 1696621403337035369, 
0.19953233003616333, 0.04960179328918457, 0.9164118473599665, 1696621403347994646, 
-0.1166224479675293, 0.1341591477394104, 0.9780737237984767, 1696621403358462813, 
-0.21509891748428345, 0.8300568461418152, 1.1014745129944021, 1696621403367907931, 
-0.3449019193649292, -0.10289132595062256, 1.0543897605397845, 1696621403377961821, 
-0.272685170173645, -0.2696841359138489, 0.8973871130288372, 1696621403389955918, 
0.6288862228393555, 0.4461393356323242, 1.3465335974258714, 1696621403397838890, 
0.6878794431686401, 0.182506263256073, 1.039514432697714, 1696621403407831399, 
0.31858980655670166, 0.7141870260238647, 0.9997510980981394, 1696621403417908886, 
-0.2035033106803894, 0.4130297303199768, 0.997523947965642, 1696621403427859805, 
-0.3693675398826599, -0.11677902936935425, 0.9559770336711336, 1696621403438355102, 
-0.15774482488632202, 0.08974641561508179, 1.0632236361632437, 1696621403447785518, 
-0.30939042568206787, -0.274524986743927, 1.1103787684584143, 1696621403456776670, 
0.03828829526901245, -0.10794472694396973, 0.7577629477553942, 1696621403469924407, 
0.1426398754119873, 0.8195090889930725, 1.2533861590838047, 1696621403477720334, 
-0.11894351243972778, 0.21703964471817017, 0.9642192187898009, 1696621403487810559, 
-0.06435245275497437, 0.37970227003097534, 1.0609858505145675, 1696621403497019071, 
-0.35104984045028687, 0.2902211546897888, 0.9046008918409121, 1696621403507707346, 
-0.14627093076705933, -0.2678568959236145, 0.9491895235045087, 1696621403517996126, 
0.014737129211425781, 0.39148080348968506, 1.0052345818986996, 1696621403527707436, 
0.13570702075958252, 0.38501453399658203, 0.9831555832399951, 1696621403537679322, 
-0.09778094291687012, -0.17074763774871826, 0.8804681424953938, 1696621403549044313, 
-0.18145310878753662, 0.250360906124115, 1.1704537503127974, 1696621403557597382, 
-0.43642163276672363, -0.1796146035194397, 0.9977038996757285, 1696621403567689249, 
0.05288189649581909, 0.18622595071792603, 1.0053570756223833, 1696621403577768294, 
0.31962019205093384, 0.9599601030349731, 1.0237791648979115, 1696621403587637595, 
0.2578756809234619, 0.1077379584312439, 0.9603299964198105, 1696621403598306633, 
0.08609336614608765, 0.3681321144104004, 1.1049706740059515, 1696621403607635482, 
-0.3912864327430725, 0.35799163579940796, 1.0171032428788773, 1696621403617682635, 
0.2905285954475403, 0.4984818696975708, 0.8121037849499062, 1696621403630366507, 
0.36695778369903564, -0.07961344718933105, 1.3928559077912932, 1696621403637681351, 
0.3719138503074646, -0.2027876377105713, 1.0253349077352065, 1696621403647678451, 
0.01992785930633545, 0.7375679612159729, 1.0293348452656559, 1696621403657717127, 
-0.43786484003067017, 0.21882081031799316, 1.0170694474618795, 1696621403667696892, 
-0.23251092433929443, 0.28375279903411865, 0.9858623989854992, 1696621403677986110, 
-0.1324407458305359, 0.1864863634109497, 1.053580252684775, 1696621403687583432, 
-0.11398148536682129, -0.5465545058250427, 1.0069518786118867, 1696621403697564807, 
0.3221338987350464, 0.7962998747825623, 0.7969785729428936, 1696621403710299172, 
0.019148170948028564, 0.6651297807693481, 1.400031702897136, 1696621403717509201, 
-0.4067118167877197, -0.26754456758499146, 0.9980794657637928, 1696621403727496329, 
-0.45382338762283325, 0.12043815851211548, 1.0060887040767132, 1696621403737521364, 
-0.8016222715377808, -0.14452511072158813, 0.9898733017104204, 1696621403747660438, 
-0.06311917304992676, 0.41947686672210693, 0.9217012178499463, 1696621403758733870, 
0.5846427083015442, 0.9086568355560303, 1.1797712161884077, 1696621403767445819, 
0.39591729640960693, -0.32868462800979614, 1.0021954985779657, 1696621403777504450, 
-0.1484190821647644, 0.0064879655838012695, 0.8072412057166769, 1696621403790095405, 
-0.38009947538375854, 0.4972887635231018, 1.402372029374232, 1696621403797355710, 
-0.4900040030479431, 0.2415127158164978, 1.0046031882511082, 1696621403807463983, 
0.16896235942840576, 0.6588383316993713, 1.0308161063461678, 1696621403817404958, 
0.6756688952445984, -0.07696151733398438, 1.020885272460474, 1696621403827378253, 
0.8133243322372437, -0.6083666682243347, 0.9226874670002093, 1696621403838322532, 
0.25192326307296753, 0.7058423161506653, 1.1063705408336146, 1696621403847372874, 
-0.4560279846191406, 0.4470190405845642, 0.9668527639569501, 1696621403857378444, 
-0.36647552251815796, 0.284281849861145, 0.7649093565680668, 1696621403869972199, 
-0.2645847201347351, 0.06136345863342285, 1.3195739927860193, 1696621403877321611, 
-0.09723901748657227, -0.476288378238678, 0.9818664025622815, 1696621403887306645, 
0.3448425531387329, 0.6334744095802307, 1.0200714419699324, 1696621403897232687, 
0.306922972202301, 0.7364709377288818, 1.012721783753201, 1696621403907275840, 
-0.044246554374694824, -0.1453196406364441, 0.9220462866610651, 1696621403918271852, 
-0.558563768863678, 0.2237263321876526, 1.1292670291774802, 1696621403927281073, 
-0.6796020269393921, 0.08230245113372803, 0.9927870240577615, 1696621403937455028, 
-0.3149043917655945, 0.6152385473251343, 0.8079334532966966, 1696621403949946848, 
0.15734237432479858, 1.0106854438781738, 1.3923023374573307, 1696621403957216756, 
0.7620238661766052, -0.3134373426437378, 1.009835403201226, 1696621403967268782, 
0.160719096660614, -0.09978318214416504, 1.0548812344563017, 1696621403977187475, 
-0.3208959102630615, 0.37314897775650024, 1.0652310601977528, 1696621403987215104, 
-0.78508460521698, -0.08491790294647217, 0.9593274004592949, 1696621403998391643, 
-0.19164806604385376, 0.41190022230148315, 1.2233261254364904, 1696621404007160184, 
0.290557861328125, 0.11076986789703369, 1.0401772674149259, 1696621404017201017, 
0.5014849901199341, -0.15854519605636597, 0.81417242308045, 1696621404029672225, 
0.764741837978363, 0.8052405118942261, 1.333271246252222, 1696621404037138389, 
-0.4495914578437805, 0.11373847723007202, 0.973819849656808, 1696621404047176915, 
-0.1368778944015503, 0.12201189994812012, 0.9774637452499298, 1696621404057168033, 
-0.47724467515945435, 0.1854119896888733, 0.9676823102408842, 1696621404067250083, 
-0.220838725566864, -0.3095187544822693, 0.8636875985389723, 1696621404078471357, 
0.061511218547821045, 0.32030171155929565, 1.1303420283253087, 1696621404087143191, 
-0.13286370038986206, 0.5179282426834106, 0.9566758540050072, 1696621404097303506, 
-0.17947918176651, -0.1371026635169983, 0.8240927653868696, 1696621404109175115, 
-0.28367578983306885, 0.7446578741073608, 1.2452462475804276, 1696621404117125159, 
-0.20703238248825073, 0.15521395206451416, 0.9791717714425351, 1696621404127227658, 
-0.23581534624099731, 0.11014258861541748, 0.9986396940624859, 1696621404137196584, 
0.29181182384490967, 0.7413158416748047, 1.0121374927378388, 1696621404147121221, 
-0.15402626991271973, -0.07993364334106445, 0.9016909680641476, 1696621404158361389, 
-0.2659739851951599, -0.056076765060424805, 1.1764513329366069, 1696621404167143498, 
-0.303574800491333, 0.28737300634384155, 1.0383277412418863, 1696621404177195987, 
-0.21467536687850952, -0.21961939334869385, 0.8879272991865395, 1696621404189009469, 
0.7634004950523376, 0.6019217371940613, 1.2899609017027092, 1696621404197152142, 
0.5136545896530151, 0.46072208881378174, 1.0287657330920568, 1696621404207156539, 
0.32982826232910156, 0.09072685241699219, 1.0180800578281177, 1696621404217104439, 
-0.1469743251800537, 0.5355204343795776, 1.0085861988615046, 1696621404227125752, 
-0.5117371082305908, -0.3023810386657715, 0.8959504814841642, 1696621404238287244, 
-0.2590886950492859, 0.1601318120956421, 1.1442786817608104, 1696621404247077002, 
0.36969929933547974, 0.800552487373352, 0.9797192754464759, 1696621404257219700, 
0.4787049889564514, -0.13448023796081543, 0.8194667874093882, 1696621404269144067, 
-0.039275407791137695, 0.23162955045700073, 1.432139566114989, 1696621404276044935, 
-0.6932680010795593, 0.4372379183769226, 0.8962258072866107, 1696621404287091730, 
-0.6507918834686279, 0.1187935471534729, 0.9933854723902107, 1696621404297109808, 
0.02075570821762085, 0.5975989103317261, 1.0000583781182126, 1696621404307056897, 
0.31669431924819946, -0.1707826852798462, 0.9931821128898026, 1696621404317034634, 
0.16946375370025635, -0.17418229579925537, 1.0091435174086816, 1696621404327006965, 
-0.04181826114654541, 0.6564286947250366, 1.1216105060382098, 1696621404336042243, 
-0.47575122117996216, 0.048602938652038574, 0.9826414201662642, 1696621404346338507, 
-0.6677443385124207, 0.1666189432144165, 1.060614185343082, 1696621404356022578, 
-0.3017749786376953, 0.11622738838195801, 0.9864550754668907, 1696621404366434336, 
0.08216023445129395, -0.21213191747665405, 1.040644613032881, 1696621404376268781, 
0.7635465264320374, 0.5970842242240906, 0.9993256249692059, 1696621404386434067, 
0.2432922124862671, 0.5123749375343323, 0.8181686101012067, 1696621404398430028, 
-0.1149868369102478, 0.28186678886413574, 1.2438156698009384, 1696621404406261855, 
-0.27022695541381836, 0.33129769563674927, 0.9738213852127572, 1696621404416291165, 
-0.5667523145675659, -0.2971084713935852, 0.9776933108646683, 1696621404426275861, 
-0.20712733268737793, 0.23876303434371948, 0.9925110374830748, 1696621404436190411, 
0.47726374864578247, 0.8111957907676697, 0.982002982802912, 1696621404446151660, 
0.30259084701538086, 0.03528410196304321, 0.9605005168991222, 1696621404456260191, 
0.043878793716430664, -0.15087151527404785, 0.9970484896530706, 1696621404466162963, 
-0.2938946485519409, 0.11141449213027954, 0.9281457429828095, 1696621404477040109, 
-0.23269438743591309, 0.2897875905036926, 1.1205370819980176, 1696621404486129588, 
0.06329578161239624, 0.7242076396942139, 1.0109201787720457, 1696621404496183471, 
0.31621766090393066, 0.20510584115982056, 0.9981155743527378, 1696621404506212245, 
0.30069583654403687, 0.1576918363571167, 1.0125440340358425, 1696621404516104738, 
0.12690991163253784, 0.5328267812728882, 0.955509657337662, 1696621404526615051, 
-0.3044653534889221, 0.027662158012390137, 1.2005646106607673, 1696621404535015331, 
-0.5727615356445312, -0.060646235942840576, 0.9231710140516044, 1696621404546072755, 
-0.33106184005737305, 0.3348267078399658, 0.9287230716406365, 1696621404557039742, 
-0.11557847261428833, -0.023905038833618164, 1.1308894205794098, 1696621404566008151, 
0.22734910249710083, 0.636231541633606, 1.1226239773835585, 1696621404575024782, 
0.09943366050720215, 0.36533504724502563, 1.0112934089944137, 1696621404585023416, 
-0.16020143032073975, -0.12412267923355103, 0.9348854296261611, 1696621404595969973, 
-0.25020307302474976, 0.2530723214149475, 0.9711875552621899, 1696621404606535706, 
-0.4418375492095947, -0.0057010650634765625, 1.2023714547725506, 1696621404615051170, 
-0.0862431526184082, 0.10575246810913086, 1.022440385638189, 1696621404625038986, 
0.07086116075515747, 0.5471789240837097, 0.7769256551195078, 1696621404638006856, 
0.07849681377410889, -0.12651127576828003, 1.4856852184818419, 1696621404644818127, 
0.074104905128479, 0.4003429412841797, 0.9042623283039506, 1696621404656082106, 
-0.1939464807510376, 0.5239084959030151, 1.1454913113755298, 1696621404664875131, 
-0.38542938232421875, -0.14814245700836182, 0.9987598371013559, 1696621404674887407, 
-0.3425769805908203, 0.31522101163864136, 0.8700224767658811, 1696621404686125338, 
0.6707912683486938, 0.37511157989501953, 0.9928298955346482, 1696621404695792845, 
-0.6241115927696228, 0.33331674337387085, 0.9788171333811835, 1696621404705749569, 
-0.6542050838470459, 0.5211770534515381, 0.7522260098022913, 1696621404718754992, 
-0.17166668176651, -0.2621031403541565, 1.3948229086260753, 1696621404725822379, 
-0.5236651301383972, -0.12858915328979492, 1.0040144353756668, 1696621404735839215, 
0.6809659004211426, 0.7706204056739807, 1.0289873696572645, 1696621404745738871, 
0.15708011388778687, -0.06019669771194458, 1.0637147715264197, 1696621404755708092, 
1.110754132270813, 0.1881536841392517, 1.0397900370648894, 1696621404766116550, 
0.8186314105987549, 0.15493005514144897, 1.1009548754538832, 1696621404775778203, 
0.08383297920227051, -0.7889335751533508, 1.0623025089418723, 1696621404785657295, 
0.5932861566543579, 0.6867923140525818, 0.9008908561723923, 1696621404797028735, 
-0.3829823136329651, 0.6879793405532837, 1.1512120894209423, 1696621404805651965, 
-0.3993269205093384, 0.6223860383033752, 0.9789775212721968, 1696621404815584911, 
-0.7381609082221985, 0.5642690062522888, 0.945745784038561, 1696621404825658068, 
-0.4448229670524597, -0.13500750064849854, 0.9619925558155364, 1696621404835558030, 
-0.05515366792678833, 0.5769068598747253, 0.8638788466597518, 1696621404846604032, 
0.5341449975967407, 0.29577863216400146, 1.0427365946364158, 1696621404855567820, 
0.03614449501037598, -0.5775335431098938, 0.9367792807204918, 1696621404865575170, 
-0.3614901304244995, 0.13454341888427734, 0.7616372785970602, 1696621404878081534, 
-1.0951579809188843, 0.32473433017730713, 1.321480668582008, 1696621404885462681, 
-1.1369489431381226, 0.40631550550460815, 1.0022626434111175, 1696621404895503350, 
0.24398869276046753, 0.6703072786331177, 1.0067278192798845, 1696621404905515310, 
0.37483203411102295, -0.5313361883163452, 1.0161101400961525, 1696621404915421477, 
0.6101635098457336, 0.1592477560043335, 0.9317800057476073, 1696621404926271237, 
-0.15216994285583496, 0.8514090180397034, 1.0903006116141025, 1696621404935428463, 
-0.28038257360458374, 0.4212452173233032, 0.9863271150431923, 1696621404945438423, 
-0.8234789967536926, 0.5014382600784302, 0.7704846224085932, 1696621404958232789, 
-0.4618016481399536, -0.019051730632781982, 1.371602231083299, 1696621404965476971, 
0.054244041442871094, -0.050605177879333496, 1.0422696392992856, 1696621404975323162, 
0.5684444904327393, 0.6040447354316711, 1.0418860045404423, 1696621404985433359, 
0.46847665309906006, 0.2041056752204895, 1.0756131450385855, 1696621404995304242, 
-0.311572790145874, -0.19285231828689575, 0.9647106386098994, 1696621405006276773, 
-0.2752923369407654, 0.04460430145263672, 1.1609332014518245, 1696621405015287778, 
-0.737292468547821, 0.1339111328125, 1.0473155314320466, 1696621405025291946, 
0.028466343879699707, 0.8139601945877075, 0.7881303031965199, 1696621405038459158, 
0.5025543570518494, 0.5683987736701965, 1.503564638272718, 1696621405045240584, 
0.8815481066703796, -0.043508827686309814, 1.0089818644041422, 1696621405055328677, 
0.16333335638046265, -0.04239189624786377, 1.0237387411298176, 1696621405065255887, 
-0.2984396815299988, 0.14081966876983643, 1.0238925978881595, 1696621405075173157, 
-0.5637894868850708, 0.29427117109298706, 0.9148861354336779, 1696621405086265946, 
-0.4684869050979614, 0.5697975754737854, 1.1270582324902998, 1696621405095269362, 
-0.07533138990402222, 0.03527337312698364, 1.0298719169635198, 1696621405105222701, 
0.3292105197906494, 0.16435980796813965, 0.8786031671818745, 1696621405117027047, 
0.5036085844039917, 0.46296006441116333, 1.2614799911489867, 1696621405125186564, 
-0.027675926685333252, -0.00028949975967407227, 1.0239882120749462, 1696621405135152446, 
-0.1771794557571411, 0.20297586917877197, 1.0086299032771997, 1696621405145195609, 
-0.2603217363357544, 0.2755458950996399, 1.0058508116029137, 1696621405155306415, 
-0.38325703144073486, 0.3460158109664917, 0.8692357960630488, 1696621405167117125, 
-0.21728616952896118, -0.08690184354782104, 1.2792281120680602, 1696621405175154252, 
0.41997188329696655, 0.10455584526062012, 1.0400888488048643, 1696621405185076127, 
-0.06113576889038086, 0.6308125853538513, 0.834681105136187, 1696621405197354856, 
-0.2559436559677124, 0.2196977138519287, 1.320890760706946, 1696621405205074219, 
0.027627408504486084, 0.30815160274505615, 1.0183901307474148, 1696621405215071772, 
0.040058255195617676, 0.21902257204055786, 1.0162674494957775, 1696621405224974384, 
0.18260431289672852, -0.08797347545623779, 0.9990171619726943, 1696621405234909859, 
0.17172890901565552, 0.31335580348968506, 0.9542188120154999, 1696621405245223694, 
-0.26192331314086914, 0.2906090021133423, 1.0126390538420236, 1696621405254885015, 
-0.3728474974632263, 0.1535571813583374, 0.9970284463622863, 1696621405264850821, 
-0.04888671636581421, 0.5615379810333252, 0.7879001353231282, 1696621405277656899, 
-0.11017352342605591, 0.1226927638053894, 1.409075670321141, 1696621405284840489, 
0.24909979104995728, 0.2537866234779358, 1.0150283595937482, 1696621405294873322, 
-0.20539194345474243, 0.18425393104553223, 1.0058535642766049, 1696621405304918889, 
-0.46564042568206787, -0.16241824626922607, 1.0113164134209078, 1696621405314807188, 
-0.2776027321815491, 0.6749507784843445, 0.8781366810298624, 1696621405326206728, 
-0.15865981578826904, 0.5966536402702332, 1.168283490463672, 1696621405334703359, 
0.22684592008590698, 0.03048187494277954, 0.9898471417350196, 1696621405344714550, 
0.22126871347427368, 0.19967734813690186, 0.8063945724858902, 1696621405357112379, 
-0.2130286693572998, 0.11221247911453247, 1.3148180552746782, 1696621405364708503, 
-0.1917048692703247, 0.48166561126708984, 1.000735528877873, 1696621405374764856, 
0.02439659833908081, 0.3938664197921753, 1.0156298787558278, 1696621405384689409, 
-0.11553049087524414, -0.3502945899963379, 1.0036865829860666, 1696621405394738590, 
0.40559136867523193, 0.13326799869537354, 0.89606922031317, 1696621405406176732, 
0.3609694242477417, 0.3565939664840698, 1.2123163542597177, 1696621405414609216, 
-0.10040289163589478, 0.3565472960472107, 1.0111804576040389, 1696621405424615263, 
-0.27552133798599243, 0.5377156138420105, 0.8081291577169283, 1696621405437121250, 
-0.526663064956665, 0.03698843717575073, 1.352045386996037, 1696621405444569410, 
-0.23512780666351318, 0.024928390979766846, 1.0115205246197814, 1696621405454639645, 
0.25182127952575684, 0.5397361516952515, 1.0351352527102418, 1696621405464571687, 
0.3983423709869385, 0.22015243768692017, 1.0178412067531777, 1696621405474531883, 
0.26746952533721924, 0.37024837732315063, 0.8132739018306511, 1696621405486848800, 
-0.2966964840888977, 0.2517511248588562, 1.2899839682369918, 1696621405494486423, 
-0.624646782875061, 0.12162846326828003, 0.9730145406104626, 1696621405504517315, 
-0.34845125675201416, 0.6637325286865234, 0.9811190540176316, 1696621405514483302, 
0.11156177520751953, 0.1648375391960144, 0.9737207715059958, 1696621405524431612, 
0.3231666088104248, -0.2921021580696106, 0.965298117732571, 1696621405534468820, 
-0.03793442249298096, -0.03285115957260132, 0.9770409093387179, 1696621405544447433, 
-0.6648191809654236, 0.3145734667778015, 0.9896309696822593, 1696621405554386185, 
-0.6809024214744568, 0.5697216391563416, 0.8198813817342218, 1696621405566513239, 
-0.18751013278961182, 0.3772602677345276, 1.2709128373777838, 1696621405574369140, 
0.42807537317276, -0.1217191219329834, 1.0116257023347608, 1696621405584343599, 
0.824086606502533, 0.2117202877998352, 1.0171760088608988, 1696621405594410495, 
0.2455986738204956, 0.4270628094673157, 1.02011020971084, 1696621405604322815, 
-0.1896769404411316, 0.25177109241485596, 0.9291825665386065, 1696621405614948121, 
-0.6400636434555054, 0.2594648003578186, 1.0400939929139246, 1696621405624314525, 
-0.269353449344635, 0.2361624836921692, 0.9752585273366142, 1696621405634256578, 
0.5776931643486023, 0.3616875410079956, 0.8300611076016179, 1696621405646200548, 
0.9943190813064575, 0.591256856918335, 1.2599700421393512, 1696621405654242924, 
0.05611896514892578, 0.07066184282302856, 1.0133892632002832, 1696621405664278463, 
-0.5770794153213501, 0.21953874826431274, 1.0172913654873637, 1696621405674275702, 
-0.611475944519043, 0.41414493322372437, 1.0272192709393277, 1696621405684182606, 
-0.7503243684768677, 0.16317111253738403, 0.9894520144557811, 1696621405694525449, 
-0.0892905592918396, 0.023027420043945312, 1.067391204113917, 1696621405704152288, 
0.23797303438186646, 0.04477334022521973, 1.0163794852816566, 1696621405714220704, 
0.28237539529800415, 0.12299090623855591, 0.8313294851891376, 1696621405726504608, 
-0.02104562520980835, 0.9810818433761597, 1.333643724269801, 1696621405734113963, 
-0.5823441743850708, 0.5050981044769287, 0.9950788702959604, 1696621405744127095, 
-0.49751466512680054, 0.017713606357574463, 0.9906628680349744, 1696621405754157016, 
-0.020258665084838867, 0.27176201343536377, 1.0082881197994342, 1696621405764074669, 
0.2504727840423584, 0.002146899700164795, 0.9736049972115636, 1696621405774493805, 
0.28336185216903687, 0.16494601964950562, 1.1997853427789404, 1696621405783040820, 
-0.24037718772888184, 0.3238169550895691, 1.0194589223557764, 1696621405793033499, 
-0.6006115674972534, -0.14839911460876465, 0.7526148182639751, 1696621405806621630, 
-0.32332175970077515, 0.31095075607299805, 1.3900076356665039, 1696621405813996475, 
0.18928343057632446, 0.47727084159851074, 1.023100839724363, 1696621405824004191, 
0.7698631286621094, 0.30446797609329224, 1.0231073156339894, 1696621405834002292, 
0.3474392890930176, 0.24619567394256592, 1.0087819819990371, 1696621405843957336, 
-0.4625718593597412, -0.10276979207992554, 0.9494159122810204, 1696621405854306750, 
-0.3293076753616333, 0.5338788032531738, 1.0225231108457495, 1696621405863894200, 
-0.3973851203918457, 0.8555145263671875, 0.9825550311691058, 1696621405873866545, 
0.10833120346069336, -0.011357545852661133, 0.8014173198025278, 1696621405886272959, 
0.48343533277511597, -0.2356281876564026, 1.3428966064862857, 1696621405893850554, 
-0.029656589031219482, 0.05697447061538696, 1.0953549753592253, 1696621405903094989, 
-0.14409279823303223, 0.5611274242401123, 0.937646269876888, 1696621405913851370, 
-0.11209744215011597, 1.0001630783081055, 0.9923444637128596, 1696621405923832223, 
-0.4190971851348877, 0.15913903713226318, 0.9002607386175367, 1696621405934663440, 
-0.18819940090179443, -0.09744971990585327, 1.087123217231172, 1696621405943809247, 
0.0622556209564209, 0.3082430958747864, 1.0197646300976202, 1696621405953734931, 
0.25490522384643555, 0.2091737985610962, 0.8223837499175904, 1696621405966191492, 
0.20484524965286255, 0.295265793800354, 1.3854148775531103, 1696621405973682414, 
-0.17163103818893433, 0.211276113986969, 1.0355832929848392, 1696621405983728364, 
-0.6196449995040894, -0.25910401344299316, 1.0469906813980625, 1696621405993731280, 
-0.17691761255264282, 0.4723883867263794, 1.0630187572555754, 1696621406003678546, 
0.09500062465667725, 0.47108787298202515, 0.9781021077138207, 1696621406014287507, 
0.5894388556480408, 0.15244990587234497, 1.0778107032970605, 1696621406023703261, 
0.650485634803772, 0.3603386878967285, 0.9962897738222884, 1696621406033645533, 
-0.4843529462814331, 0.1610773205757141, 0.7660526426673473, 1696621406046450122, 
-0.46766775846481323, 0.7133594751358032, 1.3872117115203995, 1696621406053563165, 
-0.1310977339744568, 0.4736880660057068, 0.9797130083497615, 1696621406063597994, 
0.0770186185836792, -0.36158037185668945, 0.9856658066949201, 1696621406073619536, 
0.32904815673828125, -0.22197353839874268, 0.9947999473711517, 1696621406083588988, 
0.0026872754096984863, 0.22498923540115356, 0.9218303580067402, 1696621406094238711, 
-0.31320327520370483, 0.5724229216575623, 1.0458462573488156, 1696621406103561591, 
-0.3037286400794983, 0.7341687083244324, 0.9646176571002945, 1696621406113527571, 
-0.45859962701797485, 0.16112011671066284, 0.7280298103553193, 1696621406126665262, 
0.1728684902191162, 0.03909766674041748, 1.44410933211666, 1696621406133427881, 
0.5600597858428955, 0.4361953139305115, 0.9960413391312818, 1696621406143440682, 
0.09560239315032959, 0.14852553606033325, 1.0096392137059755, 1696621406153464840, 
-0.36945706605911255, 0.0900842547416687, 1.0155458657417589, 1696621406163449860, 
-0.7863563299179077, 0.3970524072647095, 0.9072124176918913, 1696621406174520436, 
-0.6007906794548035, 0.28075069189071655, 1.124991877212699, 1696621406183422978, 
0.08540433645248413, 0.49748915433883667, 0.981749610427935, 1696621406193608216, 
0.6723103523254395, 0.2012973427772522, 1.0204416960149958, 1696621406213426845, 
-0.133652925491333, 0.188720703125, 1.020180255327614, 1696621406223385423, 
-0.5890604257583618, 0.34248167276382446, 1.0129073613066713, 1696621406233347410, 
-0.5734505653381348, 0.25794339179992676, 1.0191207940763385, 1696621406243261455, 
-0.0306207537651062, 0.23549330234527588, 0.8795486843896657, 1696621406254720359, 
0.751170814037323, 0.008487999439239502, 1.1908540510255172, 1696621406263295436, 
0.8953980207443237, 0.4906529188156128, 1.0133535354031078, 1696621406273388468, 
0.10630917549133301, 0.6118565797805786, 0.8033310267079672, 1696621406285843387, 
-0.5444391369819641, 0.1505381464958191, 1.333862680620336, 1696621406293217776, 
-0.40641510486602783, 0.585871160030365, 0.9667061934082765, 1696621406303221679, 
-0.5970340967178345, 0.25752514600753784, 0.9620581023179423, 1696621406313202007, 
0.1949014663696289, -0.023066699504852295, 0.9592879858888299, 1696621406323366778, 
0.5827299356460571, 0.28709954023361206, 0.9017298704697202, 1696621406334408850, 
-0.2238662838935852, -0.005808532238006592, 1.1605550060056211, 1696621406343149449, 
-0.42895251512527466, 0.08966976404190063, 0.9990249979151319, 1696621406353378155, 
-0.5134993195533752, 0.5718016028404236, 0.8165681396367754, 1696621406365780701, 
-0.6265943050384521, 0.1542445421218872, 1.3952600163990745, 1696621406373076895, 
0.13856357336044312, 0.6155761480331421, 1.0023764379104025, 1696621406383297267, 
0.2038469910621643, 0.15489554405212402, 1.0441761207276485, 1696621406393087425, 
0.08789736032485962, -0.08893722295761108, 1.0339414088323753, 1696621406402995060, 
-0.16743844747543335, 0.7629016041755676, 0.8796839332685708, 1696621406414490866, 
-0.5117323994636536, 0.3937692642211914, 1.179943345673397, 1696621406422995191, 
-0.3692218065261841, -0.048645198345184326, 1.0023151120129419, 1696621406433101641, 
0.20568066835403442, 0.2125806212425232, 0.8269165238234769, 1696621406445439380, 
0.25304973125457764, 0.08631026744842529, 1.3591893380050357, 1696621406452944525, 
0.9895594120025635, 0.47326189279556274, 0.9959071352818918, 1696621406462953041, 
0.47078120708465576, 0.2696850895881653, 1.184476719054761, 1696621406471056695, 
-0.28957557678222656, -0.1733425259590149, 0.7992454712858726, 1696621406482976320, 
-0.27181851863861084, 0.42893165349960327, 0.8483012051869872, 1696621406494221232, 
-0.22717195749282837, 0.29448777437210083, 1.1134883454398163, 1696621406502877733, 
0.12535107135772705, 0.1733924150466919, 0.9895871931014383, 1696621406512884645, 
0.04897242784500122, 0.40182095766067505, 0.7978099545454148, 1696621406525331212, 
0.1556607484817505, 0.07516944408416748, 1.2697583919762936, 1696621406533200963, 
-0.3401685953140259, 0.40146923065185547, 1.0393548814388023, 1696621406542827200, 
-0.350433349609375, 0.7939966320991516, 0.9756905039748607, 1696621406552951025, 
-0.45057106018066406, 0.30857938528060913, 1.0083483775972808, 1696621406562789824, 
0.22726356983184814, 0.41091418266296387, 0.842559915958809, 1696621406574683074, 
0.16858989000320435, -0.007980048656463623, 1.2597346768096718, 1696621406582696886, 
-0.13847583532333374, 0.010400593280792236, 1.0165251521921388, 1696621406592775448, 
-0.12302577495574951, 0.6913837790489197, 1.0352444418219824, 1696621406602781313, 
-0.2766771912574768, 0.3226504325866699, 1.0527857673812366, 1696621406612717112, 
-0.46874916553497314, -0.13012444972991943, 1.0688720277561405, 1696621406622714038, 
-0.02832740545272827, 0.037162721157073975, 1.0681693137404857, 1696621406632764912, 
0.44499897956848145, 0.24332290887832642, 1.0702804381585485, 1696621406642713535, 
0.653026819229126, 0.670535683631897, 0.8722635795046113, 1696621406654585356, 
0.02077043056488037, 0.503772497177124, 1.2507038036341565, 1696621406662644747, 
-0.4135856032371521, 0.1484472155570984, 0.9773881251368784, 1696621406672926393, 
-0.48473936319351196, 0.27114832401275635, 1.0319721626875697, 1696621406682668067, 
0.2536057233810425, -0.1675230860710144, 0.9930902058534748, 1696621406692822707, 
0.7317487001419067, 0.3091937303543091, 1.005177531439561, 1696621406702755740, 
0.12739670276641846, 0.27764326333999634, 0.986317188134477, 1696621406712689556, 
-0.12562942504882812, 0.49715209007263184, 0.9821030394313356, 1696621406722543805, 
-0.45224034786224365, 0.5744750499725342, 0.7700119318193711, 1696621406735033004, 
-0.23946869373321533, -0.12801849842071533, 1.2635765826959973, 1696621406742632014, 
0.32142895460128784, 0.07315903902053833, 0.9783030102139815, 1696621406752565732, 
0.13606584072113037, 0.4031984806060791, 0.9810355480011572, 1696621406762489054, 
-0.11188209056854248, 0.29578697681427, 0.9771449632855742, 1696621406772429764, 
-0.5835152864456177, 0.34367984533309937, 0.9727933779679768, 1696621406782469685, 
-0.6715280413627625, -0.11223286390304565, 0.9832639855060998, 1696621406792431446, 
-0.21425646543502808, -0.20515590906143188, 0.9980999798253469, 1696621406802412354, 
0.6565115451812744, 0.6762142777442932, 0.8492558043352, 1696621406814399164, 
0.631938099861145, 0.32318323850631714, 1.2835682219252813, 1696621406822356025, 
0.23890477418899536, 0.23471683263778687, 1.0131725401182141, 1696621406832398736, 
-0.44470250606536865, 0.6141238808631897, 1.010054296866353, 1696621406842346754, 
-0.5758585333824158, 0.2467406988143921, 1.006893552167385, 1696621406852290173, 
0.08206117153167725, 0.5223174691200256, 1.0163613192623342, 1696621406862266741, 
0.40840309858322144, 0.268660306930542, 1.0133476210738355, 1696621406872331877, 
0.7638422250747681, -0.15195709466934204, 1.0330735053644062, 1696621406882289853, 
0.11585378646850586, 0.539372444152832, 0.8186106698600824, 1696621406894816529, 
-0.6315478086471558, 0.3249586820602417, 1.3488027760775225, 1696621406902273997, 
-0.44759124517440796, 0.2758326530456543, 0.9966430296115334, 1696621406912404911, 
-0.3348594307899475, 0.2073688507080078, 1.02807146343033, 1696621406922276649, 
0.04773050546646118, -0.4075503349304199, 1.0149537446332273, 1696621406932219144, 
0.04225742816925049, 0.5403782725334167, 1.0198836269489102, 1696621406942210762, 
0.37188243865966797, 1.1218922138214111, 1.014328530473557, 1696621406952220572, 
-0.43924301862716675, 0.20195186138153076, 1.0101246386558222, 1696621406962189209, 
-0.33680087327957153, 0.14413589239120483, 0.8306756854112095, 1696621406974433708, 
-0.5579177141189575, -0.16761118173599243, 1.3187991469344755, 1696621406982145280, 
-0.25191056728363037, 0.20301592350006104, 1.0074204583082556, 1696621406992319693, 
0.8872182369232178, 0.8436369895935059, 1.0310225789272496, 1696621407002219801, 
0.3329908847808838, -0.11024898290634155, 0.9894551886567312, 1696621407012277232, 
-0.19862216711044312, -0.1079511046409607, 0.9720393282608715, 1696621407022571866, 
-0.5763746500015259, 0.3012844920158386, 1.0825712757504047, 1696621407031976242, 
-0.48636794090270996, 0.12338829040527344, 1.148229503144193, 1696621407040975708, 
0.16330784559249878, 0.46485620737075806, 0.775287166387488, 1696621407054500039, 
0.6786839962005615, 0.22367733716964722, 1.5980132728701157, 1696621407060980475, 
0.7408226728439331, -0.17598718404769897, 0.92620431135084, 1696621407071966350, 
0.207808256149292, 0.6784045696258545, 1.0016706103136106, 1696621407081987621, 
-0.3451623320579529, 0.5978577733039856, 0.9761480397781785, 1696621407091994773, 
-0.2313709259033203, 0.36694633960723877, 0.9494960961135428, 1696621407102200644, 
-0.04626697301864624, 0.1678076982498169, 0.9994806067442285, 1696621407111914485, 
0.16600733995437622, -0.251814603805542, 0.9848741144768552, 1696621407121808655, 
0.3266240358352661, 0.7094534635543823, 0.7916095800813543, 1696621407134367955, 
0.07174420356750488, 0.7758538722991943, 1.3396413660683677, 1696621407141820209, 
-0.12912684679031372, 0.06281405687332153, 0.9964165650523986, 1696621407151867160, 
-0.5150812864303589, -0.18054383993148804, 1.0112257699957645, 1696621407161871752, 
-0.5319238305091858, -0.09693127870559692, 1.025163032927265, 1696621407171800938, 
-0.06242108345031738, 0.5945509672164917, 0.9400786802768568, 1696621407182716511, 
0.18765658140182495, 0.9089978933334351, 1.1338990992016478, 1696621407191783141, 
0.2538243532180786, 0.05119001865386963, 1.0257542106918691, 1696621407201823084, 
-0.004673361778259277, -0.05632704496383667, 0.8143751598561096, 1696621407214722143, 
-0.27156001329421997, 0.28942161798477173, 1.5296373194189818, 1696621407221693748, 
-0.5117260813713074, 0.005546987056732178, 1.0684415976607045, 1696621407231704688, 
-0.04284334182739258, 0.41581541299819946, 1.0686079347131092, 1696621407241682835, 
0.3887453079223633, 0.3593762516975403, 1.0402051702199433, 1696621407251669911, 
0.5792847275733948, 0.10505670309066772, 0.9420280983498303, 1696621407262430097, 
0.3477702736854553, 0.6998765468597412, 1.071261380842146, 1696621407271700323, 
-0.4061063528060913, 0.10704439878463745, 0.9886656235614733, 1696621407281573474, 
-0.4933353066444397, -0.05564683675765991, 0.7463400542333494, 1696621407294653454, 
-0.23512804508209229, 0.2946662902832031, 1.4173383052699602, 1696621407301526647, 
0.1208769679069519, 0.020460307598114014, 0.9647597675719843, 1696621407311700362, 
0.29464924335479736, 0.1751202940940857, 1.0086776155889874, 1696621407321542855, 
0.02321946620941162, 0.3230830430984497, 0.9975749072236871, 1696621407331524932, 
-0.27814602851867676, -0.009138941764831543, 0.8951810496055667, 1696621407342684097, 
-0.32832205295562744, 0.6323404908180237, 1.137416204843391, 1696621407351495431, 
-0.31413453817367554, 0.4075077772140503, 0.9981323391382981, 1696621407361492791, 
0.3382954001426697, 0.11322909593582153, 0.7758204763589989, 1696621407374389566, 
0.8607969284057617, 0.4282812476158142, 1.4108530511594677, 1696621407381405850, 
0.10164308547973633, 0.09332293272018433, 0.9799767776666303, 1696621407391445712, 
-0.10579901933670044, 0.2412036657333374, 1.0033646685592068, 1696621407401431413, 
-0.40627968311309814, 0.415060818195343, 1.0050509205032587, 1696621407411450347, 
-0.7322834134101868, -0.21698623895645142, 0.9541765165218198, 1696621407422214579, 
-0.0014660954475402832, 0.24604082107543945, 1.136213940938129, 1696621407431436811, 
0.5140642523765564, 0.4869082570075989, 1.0540774669427928, 1696621407441367068, 
0.6717438101768494, 0.12202674150466919, 0.8295179887462061, 1696621407454014856, 
0.2601172924041748, 0.64094477891922, 1.4196092933213833, 1696621407461342033, 
-0.5289596915245056, -0.029785096645355225, 1.0337226859916213, 1696621407471288329, 
-0.29987990856170654, 0.28690725564956665, 1.0394688200876612, 1696621407481245499, 
-0.19112563133239746, 0.8619548082351685, 1.0099733032209604, 1696621407491400030, 
0.43176084756851196, -0.12298417091369629, 1.0133445363930085, 1696621407511293783, 
-0.14115631580352783, 0.38206857442855835, 0.9838146318852404, 1696621407521367747, 
-0.5396084785461426, 0.3453807830810547, 0.7839518394133996, 1696621407533995273, 
-0.2559409737586975, 0.889327347278595, 1.3761118494297304, 1696621407541192627, 
-0.10865890979766846, -0.0999557375907898, 0.9832860016264561, 1696621407551191264, 
0.1669543981552124, -0.3681771159172058, 1.0015293398395426, 1696621407561170684, 
0.38927656412124634, 0.47327399253845215, 0.9864988835550725, 1696621407571297545, 
-0.07924556732177734, 0.22464227676391602, 0.9074505265650407, 1696621407582189261, 
-0.22821342945098877, 0.4085434675216675, 1.0927949745875511, 1696621407591286879, 
-0.4284992218017578, 0.3977910280227661, 1.003185541313817, 1696621407601133647, 
-0.27323466539382935, -0.23591142892837524, 0.7780352463030875, 1696621407613946333, 
0.5551674962043762, 0.5757623910903931, 1.652032202924191, 1696621407620034385, 
0.6153054237365723, 0.542899489402771, 0.8945580612007195, 1696621407631082578, 
0.11004078388214111, -0.024108707904815674, 0.9961469169737044, 1696621407640973360, 
-0.0997588038444519, 0.2753620147705078, 1.094810590727223, 1696621407650023118, 
-0.5939508080482483, -0.09373831748962402, 0.8580335401140627, 1696621407661623377, 
-0.44236278533935547, 0.3856852650642395, 1.1987149205613399, 1696621407669989373, 
0.28019392490386963, 0.6699696183204651, 0.8859660041407581, 1696621407681167978, 
0.37532275915145874, -0.06061708927154541, 0.7992089124325956, 1696621407693468913, 
0.20607995986938477, 0.17315006256103516, 1.333398108457102, 1696621407700936520, 
-0.13532286882400513, 0.3728477954864502, 1.0014120818297985, 1696621407710975262, 
-0.445717453956604, 0.3795212507247925, 1.027150825020569, 1696621407720861505, 
-0.09944784641265869, 0.6603795886039734, 1.0146111869564018, 1696621407730858389, 
0.11943763494491577, 0.014528751373291016, 0.846778541175486, 1696621407742811995, 
0.5088334083557129, -0.20016831159591675, 1.2764090398602292, 1696621407750844078, 
0.24331891536712646, 0.49650055170059204, 1.0245019902903936, 1696621407760846893, 
-0.07966822385787964, 0.15566039085388184, 0.814375169244186, 1696621407773439434, 
-0.41187822818756104, 0.062114596366882324, 1.402996408190861, 1696621407780783311, 
-0.4334457516670227, 0.5084656476974487, 1.0094758339267376, 1696621407790923829, 
-0.14137768745422363, 0.010577380657196045, 1.0192787331777275, 1696621407800980985, 
0.3928380608558655, 0.5767513513565063, 1.053455162894974, 1696621407810751414, 
0.23200643062591553, 0.4595003128051758, 0.8944870094510531, 1696621407822258956, 
-0.03378880023956299, -0.09915733337402344, 1.233708528502951, 1696621407830703857, 
-0.3640848994255066, 0.3453155755996704, 1.043285462239285, 1696621407840717396, 
-0.44482165575027466, 0.15401941537857056, 1.0336573777777431, 1696621407850775053, 
0.09008270502090454, 0.10107016563415527, 1.0427847875241663, 1696621407860691996, 
0.34835052490234375, 0.5266392827033997, 1.004433402177646, 1696621407870722689, 
0.21469086408615112, -0.2348015308380127, 1.003695136650236, 1696621407880644327, 
0.009018361568450928, 0.31649845838546753, 0.9929052228857891, 1696621407890655720, 
-0.20183134078979492, 0.5615549683570862, 0.8482343058362882, 1696621407902283607, 
-0.29832422733306885, -0.1322801113128662, 1.19082913249078, 1696621407910600757, 
0.2073955535888672, 0.33039796352386475, 0.9701049829730959, 1696621407920755529, 
0.1459241509437561, 0.18050336837768555, 0.9936653255759378, 1696621407930606303, 
0.10145831108093262, 0.12646138668060303, 0.9877749346362724, 1696621407940531180, 
-0.0674784779548645, 0.8447117209434509, 0.9658465658338687, 1696621407950622156, 
-0.5020574331283569, -0.02288973331451416, 0.9812821417042389, 1696621407960552963, 
-0.17003470659255981, 0.026825547218322754, 0.9846660730256541, 1696621407970513847, 
0.2621118426322937, 0.6734235286712646, 0.8090584436963992, 1696621407982597909, 
0.37721699476242065, 0.01534193754196167, 1.2637325445005743, 1696621407990473633, 
0.3564063310623169, 0.5488097667694092, 0.9928041828782237, 1696621408000631691, 
-0.38720977306365967, 0.11597585678100586, 1.0180231077183453, 1696621408010528098, 
-0.4913322925567627, -0.5019298791885376, 1.0342645246664481, 1696621408020430247, 
-0.1290876269340515, 0.6136024594306946, 1.0165563429086408, 1696621408030474690, 
-0.11205142736434937, 0.2745179533958435, 1.0295936418502836, 1696621408040373716, 
0.4305492043495178, -0.2266036868095398, 0.9970733801894119, 1696621408050658040, 
-0.32545191049575806, 0.28781658411026, 1.0301314148179004, 1696621408070460296, 
-0.06824064254760742, 0.8933801054954529, 1.0406716263492397, 1696621408080314132, 
-0.09134131669998169, 0.4827176332473755, 1.0131144880904945, 1696621408090315806, 
0.05135369300842285, -0.36139392852783203, 1.0291216181539318, 1696621408100244954, 
0.5425516963005066, 0.35425543785095215, 0.9713623570338112, 1696621408110661728, 
0.2500148415565491, 0.2694846987724304, 1.0310207527369304, 1696621408120261672, 
-0.2251671552658081, 0.0667758584022522, 0.9983284526824804, 1696621408130316655, 
-0.21245580911636353, 0.40585649013519287, 0.8386681082494678, 1696621408142265797, 
-0.11449378728866577, -0.320406436920166, 1.261684055188425, 1696621408150212523, 
0.014641642570495605, 0.016289591789245605, 0.9904242726570557, 1696621408160309440, 
0.31611305475234985, 0.7822795510292053, 0.977935884740753, 1696621408170268849, 
-0.04736989736557007, 0.3998299837112427, 0.9673216210463556, 1696621408180206143, 
-0.3334910273551941, 0.5391698479652405, 0.9266722928597638, 1696621408190523170, 
-0.2988683581352234, -0.0162695050239563, 0.9912951760582822, 1696621408200181515, 
0.15286266803741455, 0.5256054997444153, 0.9429407764003246, 1696621408210426687, 
0.35377854108810425, 0.3296141028404236, 0.8180115671867177, 1696621408222243258, 
-0.09278219938278198, -0.029439568519592285, 1.2154449903655675, 1696621408230213072, 
-0.42121946811676025, 0.10408252477645874, 0.9886010203501715, 1696621408240188770, 
-0.4437188506126404, 0.050883591175079346, 0.9900751164810556, 1696621408250252563, 
0.019991397857666016, 0.49420875310897827, 1.0147952360946286, 1696621408260184907, 
0.40410667657852173, 0.48950445652008057, 1.1183793901333816, 1696621408269211312, 
0.42090678215026855, 0.059925615787506104, 0.933077701462288, 1696621408279976729, 
0.29160457849502563, 0.4438849091529846, 1.1032173658509632, 1696621408289174238, 
-0.3404347896575928, 0.42454981803894043, 0.7281438804020859, 1696621408303199717, 
-0.42196720838546753, -0.01721477508544922, 1.504679097541791, 1696621408310007316, 
-0.2548874020576477, 0.21423250436782837, 1.0371092034679699, 1696621408319963682, 
0.1203463077545166, -0.021853387355804443, 1.0299811639944376, 1696621408329982264, 
0.46319228410720825, 0.33107811212539673, 1.049454539818871, 1696621408339849105, 
0.2175942063331604, 0.7564236521720886, 0.9890518722376987, 1696621408350318892, 
-0.34766685962677, 0.056565046310424805, 1.0780250173510788, 1696621408359851242, 
-0.29520225524902344, 0.16282254457473755, 1.0273162264795137, 1696621408369884054, 
0.14632010459899902, 0.018788039684295654, 1.0303972390401939, 1696621408389868222, 
0.2662554383277893, 0.28374260663986206, 1.0178284556286714, 1696621408400105948, 
-0.1756877303123474, -0.03610116243362427, 1.0623578722786386, 1696621408409913971, 
-0.3870081901550293, -0.11754775047302246, 1.065412896769422, 1696621408419764380, 
-0.30193692445755005, 0.7122951149940491, 0.9705557749316638, 1696621408430625545, 
-0.05214536190032959, 0.0853462815284729, 1.1463810388619615, 1696621408439742295, 
0.5337222218513489, 0.15401053428649902, 1.0410001408261496, 1696621408449731707, 
0.326857328414917, 0.31504571437835693, 0.8178733601280931, 1696621408462264662, 
0.03497886657714844, 0.05330687761306763, 1.3125636553945466, 1696621408469947729, 
-0.23228538036346436, 0.5074502229690552, 1.004037360514765, 1696621408479993337, 
-0.3918532729148865, 0.29212915897369385, 1.0240819311989917, 1696621408489725123, 
-0.07815557718276978, -0.27080798149108887, 1.0012395493321016, 1696621408499609025, 
0.5814929604530334, 0.4483453631401062, 0.9075025644311008, 1696621408510511672, 
0.5042932629585266, 0.1572309136390686, 1.078114015896385, 1696621408519604759, 
0.12764781713485718, 0.3558080792427063, 0.9841303360343407, 1696621408529598780, 
-0.05866211652755737, 0.3581768870353699, 0.7678059793023575, 1696621408542327386, 
-0.4921380281448364, -0.35283392667770386, 1.3409723382758987, 1696621408549537025, 
-0.20023351907730103, 0.44510722160339355, 0.9664165567260081, 1696621408559547328, 
-0.02019023895263672, 0.608087956905365, 0.9549097031849576, 1696621408569589858, 
0.49267828464508057, -0.15198999643325806, 0.9441008561684461, 1696621408579751531, 
0.2555572986602783, 0.16187411546707153, 0.9352801100210926, 1696621408590245554, 
-0.4690556526184082, 0.185588538646698, 1.064838592168393, 1696621408599502020, 
-0.4061831831932068, 0.472653865814209, 0.967249260961794, 1696621408609736159, 
-0.1286633014678955, 0.8075565695762634, 0.7530883496099043, 1696621408622831311, 
-0.12138062715530396, -0.28889328241348267, 1.4998505433315688, 1696621408629400303, 
0.1683254837989807, -0.007167696952819824, 1.0148375435571746, 1696621408639444718, 
0.030814707279205322, 0.4307934045791626, 1.039186321392622, 1696621408649417087, 
-0.18529635667800903, 0.17078685760498047, 1.047279995799419, 1696621408659397672, 
0.07558554410934448, 0.46942633390426636, 0.9457865884814114, 1696621408670555954, 
-0.21703684329986572, 0.10559028387069702, 1.184981972256053, 1696621408679388644, 
-0.7995958924293518, -0.002062499523162842, 1.0506988446095944, 1696621408689397195, 
0.4792936444282532, 0.19385385513305664, 1.0570219041695075, 1696621408709311860, 
1.2347179651260376, 0.024839818477630615, 1.0388265607903546, 1696621408719280038, 
0.42485612630844116, -0.024213314056396484, 1.004298522315297, 1696621408729300658, 
-0.34282875061035156, -0.05002903938293457, 0.977695010309558, 1696621408739268620, 
-0.4716319441795349, 0.7949815392494202, 0.8077786009884784, 1696621408751301186, 
-0.28953444957733154, 0.45290082693099976, 1.20369754924255, 1696621408759265112, 
-0.019501864910125732, -0.4460630416870117, 0.9589167865100089, 1696621408769228810, 
0.01576787233352661, -0.13852590322494507, 0.7696531171551243, 1696621408781815786, 
-0.06491631269454956, 0.21937203407287598, 1.3011724569536764, 1696621408789289664, 
-0.21059173345565796, 0.6187295913696289, 0.9856260696163547, 1696621408799170412, 
0.07584720849990845, 0.6233004927635193, 0.9742080722215333, 1696621408809103883, 
-0.10210597515106201, -0.1523909568786621, 0.9604132636572662, 1696621408819149603, 
-0.08521407842636108, 0.036795973777770996, 0.8810458705299388, 1696621408830194631, 
-0.0990036129951477, 0.41704362630844116, 1.0912100007499406, 1696621408839165260, 
-0.2583227753639221, -0.04101264476776123, 0.9854624707701986, 1696621408849102718, 
-0.07771116495132446, 0.4191287159919739, 0.7956608617146844, 1696621408861505065, 
-0.07771116495132446, 0.4191287159919739, 1.5154627611981353, 1696621408868082580, 
0.42573612928390503, 0.3070744276046753, 1.030053976451892, 1696621408878027498, 
0.1763424277305603, 0.5526593327522278, 0.9515822978838281, 1696621408889004567, 
-0.2424471378326416, 0.09578180313110352, 1.0494380534234304, 1696621408898944285, 
-0.24639654159545898, 0.1595304012298584, 0.9218196625539601, 1696621408910237570, 
-0.10612642765045166, 0.5460558533668518, 1.174003505740501, 1696621408918981181, 
-0.10509330034255981, 0.1550126075744629, 1.0269210350976459, 1696621408929003328, 
0.1187402606010437, 0.14105224609375, 0.830502306494133, 1696621408941497788, 
0.25104641914367676, 0.04266095161437988, 1.385946559167033, 1696621408948978794, 
0.0686987042427063, -0.2227727174758911, 1.0423349401674527, 1696621408958943104, 
0.1644759178161621, 0.5063644647598267, 1.0355550683380434, 1696621408968840352, 
-0.34511667490005493, 0.3327588438987732, 1.003425116238262, 1696621408978817591, 
0.16516757011413574, 0.15648680925369263, 0.867226619839835, 1696621408990335727, 
0.12559717893600464, 0.4831215739250183, 1.1735551325308986, 1696621408998852919, 
0.1634630560874939, -0.043846189975738525, 0.9905217562550745, 1696621409008948611, 
0.17743390798568726, 0.19509750604629517, 0.8171453084650132, 1696621409021265545, 
-0.3443813920021057, 0.31484532356262207, 1.3237082125231783, 1696621409028811644, 
-0.6817666292190552, -0.2213200330734253, 1.0012987081628895, 1696621409038799812, 
-0.39065784215927124, 0.402923583984375, 1.012282166020193, 1696621409048741213, 
0.22458529472351074, 0.39304298162460327, 1.0038010148271832, 1696621409058756320, 
0.4292636513710022, -0.0739814043045044, 0.8494771308320513, 1696621409070673122, 
0.13668090105056763, 0.39105063676834106, 1.259023120415199, 1696621409078658863, 
-0.45690202713012695, -0.023907065391540527, 0.989051077893102, 1696621409088731185, 
-0.43334245681762695, 0.4395570158958435, 0.8056387367494169, 1696621409101184243, 
-0.22353076934814453, 0.9359343647956848, 1.330073562570294, 1696621409108682762, 
0.0017358660697937012, -0.17567753791809082, 0.9998132441300637, 1696621409118700630, 
0.6905736327171326, -0.20249998569488525, 1.026057754735409, 1696621409128617980, 
0.021750152111053467, 0.15367776155471802, 1.0155003281434825, 1696621409138580189, 
-0.1837957501411438, 0.3517874479293823, 0.8569418911970234, 1696621409150298894, 
-0.049201250076293945, 0.9453754425048828, 1.1923604261746839, 1696621409158566141, 
-0.32443761825561523, 0.17641079425811768, 0.9702506688184461, 1696621409168559676, 
-0.10234510898590088, -0.21245360374450684, 0.9842468879520744, 1696621409178602112, 
0.412899374961853, 0.4267323613166809, 1.0025169862423702, 1696621409188593476, 
0.49446946382522583, -0.022746622562408447, 0.9253919553718869, 1696621409199456934, 
0.16031384468078613, 0.15259480476379395, 1.1183631043135747, 1696621409208508593, 
-0.2839377522468567, 0.3732229471206665, 0.9926546768734015, 1696621409218620317, 
-0.744720458984375, -0.2228413224220276, 0.871435011932001, 1696621409230278434, 
-0.09147900342941284, 0.4183892607688904, 1.265058044034713, 1696621409238452247, 
0.35970956087112427, 0.3182346224784851, 1.0316622693410022, 1696621409248448801, 
0.44401419162750244, -0.03562140464782715, 1.029004449045346, 1696621409258484534, 
0.2904685139656067, 0.5401306748390198, 1.0286117573791527, 1696621409268421501, 
-0.49904149770736694, 0.015763580799102783, 0.9667556363981624, 1696621409278924850, 
-0.6566335558891296, 0.5365837216377258, 1.0750340118053086, 1696621409288419346, 
-0.4434661269187927, 0.7364528775215149, 1.002718683559171, 1696621409298514872, 
0.11418139934539795, -0.13324284553527832, 0.8357311221591628, 1696621409310576607, 
0.6134816408157349, -0.23305761814117432, 1.3116369911971408, 1696621409318284345, 
0.3006531596183777, 0.10123449563980103, 0.9974534662483682, 1696621409328298864, 
-0.31432467699050903, 0.37695425748825073, 0.9796379283167286, 1696621409338382981, 
-0.3917025327682495, 0.6984806060791016, 0.9881112435435845, 1696621409348277847, 
-0.6541368961334229, -0.061940908432006836, 0.9739681230687527, 1696621409358257273, 
0.13179528713226318, -0.2884867191314697, 0.9932701981038847, 1696621409368249823, 
0.7688138484954834, 0.2959197163581848, 1.010819077702383, 1696621409378242276, 
0.5245013236999512, 0.18691754341125488, 0.7985957335144969, 1696621409390988388, 
-0.2605491280555725, 0.20186364650726318, 1.401047865957257, 1696621409398195933, 
-0.6643968820571899, 0.5722297430038452, 0.9989376308692237, 1696621409408158838, 
-0.7599537372589111, 0.17600315809249878, 0.9895231984276784, 1696621409418217030, 
-0.05229228734970093, 0.5226945281028748, 1.0009548967699151, 1696621409428143343, 
0.591745913028717, 0.3081783652305603, 0.969539723243579, 1696621409438351322, 
0.7589514851570129, -0.25899702310562134, 1.0197138362876197, 1696621409448150510, 
-0.23709803819656372, 0.11075514554977417, 1.12588766391319, 1696621409457094156, 
-0.5865927934646606, 0.3675389289855957, 0.7688490143011711, 1696621409470269763, 
-1.0235077142715454, 0.027073562145233154, 1.516082982124406, 1696621409477057798, 
-0.12390691041946411, 0.1264704465866089, 0.9456261715864454, 1696621409488065281, 
0.44117021560668945, -0.1393355131149292, 1.0535970750120651, 1696621409498115418, 
1.086641788482666, 0.18847596645355225, 1.0701004470480415, 1696621409508006614, 
0.7351154685020447, 0.7461857795715332, 0.9596900149677611, 1696621409518703443, 
-0.5252072215080261, 0.1818261742591858, 1.0890017498835785, 1696621409527981078, 
-0.20690810680389404, 0.536760151386261, 0.9988694298316512, 1696621409537991559, 
-0.8017388582229614, 0.29439765214920044, 0.8129966154244198, 1696621409550259164, 
0.07599711418151855, -0.06105804443359375, 1.3013024890626037, 1696621409557955581, 
0.49996405839920044, 0.5246422290802002, 0.9941135749117913, 1696621409567946263, 
0.2586252689361572, -0.01977485418319702, 0.9873368302507697, 1696621409577977812, 
-0.23233330249786377, -0.03679859638214111, 1.0019236059205665, 1696621409587912003, 
-0.4718332290649414, 0.7397139072418213, 0.9490000871770443, 1696621409598343546, 
-0.6231312155723572, 0.024417400360107422, 1.0487290146878716, 1696621409607868613, 
-0.18128538131713867, 0.28860390186309814, 1.094712843205214, 1696621409617056418, 
0.1704038381576538, 0.10032451152801514, 0.7528101924065209, 1696621409630277344, 
0.14477258920669556, -0.5044329762458801, 1.3276099026680954, 1696621409637837481, 
0.14215725660324097, 0.8419256806373596, 0.9965854847981905, 1696621409647873868, 
-0.4074370861053467, 0.4019314646720886, 1.0076329402017783, 1696621409657786859, 
-0.5776000618934631, -0.34344762563705444, 0.997799859233882, 1696621409667968180, 
-0.058247268199920654, 0.25254666805267334, 0.9718965578211894, 1696621409678361702, 
-0.10011428594589233, 0.1445850133895874, 1.0570593405247257, 1696621409687854163, 
0.7565686106681824, 0.565037727355957, 1.0005573586223802, 1696621409697797332, 
0.6211894154548645, 0.7257368564605713, 0.7464036220370878, 1696621409711004127, 
-0.25438350439071655, -0.28763455152511597, 1.4573892123784717, 1696621409717888142, 
-0.3915584087371826, 0.17907702922821045, 1.0132359184027622, 1696621409727887962, 
-0.5449053645133972, 0.13863301277160645, 1.0267342443970415, 1696621409737752312, 
0.6657561659812927, 0.5455616116523743, 0.9903324865292532, 1696621409747992204, 
0.3771046996116638, 0.0038794875144958496, 0.9148489498194068, 1696621409758920201, 
-0.22808873653411865, 0.08433306217193604, 1.2408693259999248, 1696621409767017434, 
-0.17201906442642212, 0.941065788269043, 0.9264349186265205, 1696621409778000878, 
-0.6013712286949158, 0.06533700227737427, 0.8174721959133731, 1696621409790288209, 
-0.15725165605545044, 0.11258542537689209, 1.32146572735508, 1696621409797876061, 
